,t,ax,ay,az,wx,wy,wz
0,3.0,-1.12,5.16,3.06,-0.88,0.36,-0.67
1,6.0,-1.19,5.14,3.1,-0.89,0.32,-0.72
2,9.0,-1.3,5.09,3.16,-0.91,0.3,-0.74
3,13.0,-1.47,5.02,3.24,-0.93,0.28,-0.75
4,16.0,-1.61,4.96,3.31,-0.97,0.26,-0.77
5,19.0,-1.75,4.84,3.39,-1.04,0.24,-0.8
6,22.0,-1.82,4.78,3.46,-1.1,0.22,-0.84
7,26.0,-1.89,4.72,3.58,-1.18,0.21,-0.89
8,29.0,-1.94,4.65,3.69,-1.27,0.2,-0.95
9,32.0,-1.96,4.49,3.81,-1.41,0.18,-1.04
10,35.0,-1.98,4.33,3.9,-1.53,0.16,-1.11
11,39.0,-1.95,4.22,3.92,-1.66,0.14,-1.19
12,42.0,-1.92,4.18,3.95,-1.79,0.11,-1.27
13,45.0,-1.89,4.18,3.97,-1.96,0.07,-1.37
14,48.0,-1.91,4.16,3.97,-2.07,0.04,-1.43
15,52.0,-1.89,4.14,3.97,-2.15,0.01,-1.48
16,55.0,-1.87,4.07,3.96,-2.19,-0.03,-1.52
17,58.0,-1.82,3.98,4.0,-2.2,-0.07,-1.55
18,61.0,-1.8,3.91,4.05,-2.18,-0.1,-1.54
19,65.0,-1.8,3.82,4.16,-2.13,-0.13,-1.52
20,68.0,-1.83,3.75,4.24,-2.06,-0.16,-1.48
21,71.0,-1.96,3.62,4.41,-1.94,-0.19,-1.41
22,74.0,-2.04,3.53,4.57,-1.85,-0.22,-1.36
23,78.0,-2.16,3.45,4.79,-1.77,-0.24,-1.31
24,81.0,-2.26,3.39,5.01,-1.7,-0.26,-1.26
25,84.0,-2.45,3.29,5.32,-1.63,-0.27,-1.2
26,87.0,-2.6,3.21,5.57,-1.6,-0.26,-1.16
27,91.0,-2.77,3.12,5.82,-1.58,-0.25,-1.13
28,94.0,-2.94,3.02,6.03,-1.58,-0.24,-1.1
29,97.0,-3.14,2.83,6.28,-1.61,-0.22,-1.06
30,101.0,-3.26,2.65,6.41,-1.65,-0.2,-1.04
31,104.0,-3.24,2.47,6.53,-1.7,-0.18,-1.01
32,107.0,-3.25,2.22,6.62,-1.79,-0.16,-0.99
33,110.0,-2.87,2.01,6.6,-1.85,-0.14,-0.98
34,114.0,-2.48,1.86,6.57,-1.93,-0.11,-0.98
35,117.0,-2.62,1.66,6.55,-1.98,-0.09,-0.98
36,120.0,-3.42,1.34,6.39,-1.96,-0.07,-0.98
37,123.0,-4.16,1.23,6.35,-1.91,-0.04,-0.96
38,127.0,-4.85,1.21,6.44,-1.83,-0.01,-0.93
39,130.0,-5.33,1.27,6.62,-1.75,-0.01,-0.89
40,133.0,-5.37,1.3,6.94,-1.7,-0.02,-0.83
41,136.0,-5.11,1.21,7.14,-1.7,-0.04,-0.78
42,140.0,-4.81,1.04,7.21,-1.72,-0.08,-0.74
43,143.0,-4.62,0.86,7.14,-1.72,-0.12,-0.69
44,146.0,-4.47,0.73,6.89,-1.69,-0.16,-0.63
45,150.0,-4.45,0.66,6.69,-1.63,-0.19,-0.58
46,153.0,-4.42,0.62,6.52,-1.54,-0.21,-0.53
47,156.0,-4.39,0.56,6.41,-1.45,-0.22,-0.47
48,159.0,-4.36,0.44,6.29,-1.31,-0.22,-0.39
49,163.0,-4.36,0.3,6.24,-1.2,-0.21,-0.33
50,166.0,-4.37,0.17,6.21,-1.08,-0.19,-0.27
51,169.0,-4.35,0.09,6.17,-0.96,-0.17,-0.22
52,172.0,-4.36,-0.02,6.15,-0.79,-0.14,-0.14
53,176.0,-4.34,-0.09,6.1,-0.66,-0.12,-0.08
54,179.0,-4.37,-0.16,6.08,-0.52,-0.1,-0.03
55,182.0,-4.37,-0.24,6.08,-0.34,-0.07,0.03
56,185.0,-4.39,-0.28,6.1,-0.21,-0.04,0.07
57,189.0,-4.4,-0.3,6.16,-0.11,-0.02,0.08
58,192.0,-4.41,-0.31,6.21,-0.05,-0.01,0.09
59,195.0,-4.48,-0.3,6.34,-0.0,0.01,0.07
60,198.0,-4.52,-0.27,6.5,0.0,0.02,0.05
61,202.0,-4.59,-0.25,6.68,-0.01,0.04,0.02
62,205.0,-4.6,-0.22,6.85,-0.03,0.05,-0.02
63,208.0,-4.7,-0.22,7.07,-0.1,0.05,-0.07
64,211.0,-4.99,-0.45,7.07,-0.19,0.01,-0.07
65,215.0,-5.31,-0.69,6.74,-0.26,-0.05,-0.04
66,218.0,-5.4,-0.73,6.35,-0.28,-0.07,-0.0
67,221.0,-5.25,-0.63,5.85,-0.21,-0.1,0.07
68,225.0,-5.08,-0.56,5.46,-0.08,-0.12,0.12
69,228.0,-4.83,-0.44,5.15,0.12,-0.11,0.14
70,231.0,-4.56,-0.25,5.11,0.37,-0.07,0.14
71,234.0,-4.14,-0.04,5.34,0.7,-0.03,0.11
72,238.0,-3.87,0.17,5.73,0.87,0.01,0.08
73,241.0,-3.67,0.31,6.22,0.94,0.03,0.05
74,244.0,-3.64,0.5,6.61,0.91,0.04,0.03
75,247.0,-4.31,1.21,6.45,0.62,0.09,0.07
76,250.0,-5.48,2.25,5.05,0.2,0.24,0.19
77,254.0,-6.19,2.77,4.22,-0.27,0.47,0.34
78,257.0,-6.56,3.45,2.78,-0.19,0.71,0.52
79,260.0,-6.68,4.2,1.37,0.08,1.06,0.75
80,263.0,-5.93,4.83,0.56,0.74,1.62,1.08
81,267.0,-4.33,3.78,2.0,1.79,1.92,1.3
82,270.0,-2.29,1.59,4.14,3.33,2.03,1.4
83,273.0,-0.69,-0.79,7.33,4.28,2.02,1.38
84,276.0,0.17,-2.42,10.79,4.67,1.73,1.19
85,279.0,-1.4,-2.62,13.87,3.9,1.22,0.91
86,283.0,-3.47,-1.45,14.47,2.56,0.79,0.69
87,286.0,-5.05,-0.23,13.72,1.01,0.37,0.51
88,289.0,-5.95,0.35,11.9,-0.31,0.01,0.32
89,292.0,-6.15,0.39,8.92,-1.41,-0.31,0.05
90,296.0,-5.74,0.36,6.68,-1.64,-0.42,-0.14
91,299.0,-5.17,0.51,4.88,-1.49,-0.39,-0.28
92,302.0,-4.7,0.76,3.71,-1.12,-0.25,-0.34
93,305.0,-4.44,0.91,3.13,-0.52,-0.01,-0.31
94,309.0,-4.44,0.66,3.24,-0.12,0.18,-0.23
95,312.0,-4.69,0.22,3.7,0.2,0.34,-0.15
96,315.0,-5.1,-0.26,4.26,0.46,0.48,-0.08
97,318.0,-5.89,-0.59,4.87,0.73,0.59,0.01
98,322.0,-6.6,-0.5,5.13,0.88,0.64,0.09
99,325.0,-7.24,-0.36,5.25,0.99,0.66,0.18
100,328.0,-7.46,-0.33,5.44,1.14,0.64,0.24
101,331.0,-7.34,-0.15,5.43,1.27,0.58,0.28
102,334.0,-7.58,0.11,5.29,1.38,0.47,0.31
103,338.0,-7.42,0.55,5.07,1.43,0.42,0.28
104,341.0,-7.05,0.94,5.07,1.42,0.38,0.24
105,344.0,-6.51,1.29,5.17,1.39,0.33,0.18
106,347.0,-4.97,1.88,5.4,1.29,0.26,0.05
107,351.0,-4.06,2.13,5.77,1.12,0.23,-0.03
108,354.0,-3.47,2.23,6.0,0.92,0.16,-0.09
109,357.0,-2.94,2.39,6.1,0.67,0.12,-0.13
110,360.0,-2.83,2.38,6.22,0.41,0.09,-0.14
111,363.0,-3.58,2.01,6.05,0.08,0.05,-0.12
112,367.0,-4.35,1.63,5.73,-0.09,0.04,-0.11
113,370.0,-4.9,1.42,5.42,-0.17,0.07,-0.1
114,373.0,-5.07,1.42,5.18,-0.16,0.1,-0.09
115,376.0,-5.0,1.54,5.05,-0.06,0.14,-0.09
116,380.0,-4.91,1.61,5.09,0.04,0.15,-0.08
117,383.0,-4.9,1.64,5.25,0.16,0.16,-0.08
118,386.0,-4.91,1.67,5.49,0.27,0.15,-0.07
119,389.0,-4.94,1.7,5.86,0.34,0.12,-0.08
120,393.0,-4.93,1.72,6.15,0.33,0.08,-0.08
121,396.0,-5.06,2.24,6.68,0.22,0.05,-0.09
122,399.0,-5.05,2.78,7.34,-0.21,0.01,-0.07
123,402.0,-4.94,2.1,7.02,-0.44,-0.08,-0.05
124,406.0,-4.9,1.46,6.25,-0.49,-0.11,-0.07
125,409.0,-4.67,1.47,6.17,-0.55,-0.08,-0.07
126,412.0,-4.51,1.35,6.23,-0.63,-0.06,-0.05
127,415.0,-4.42,1.35,6.08,-0.68,-0.06,-0.04
128,419.0,-4.31,1.62,5.66,-0.71,-0.08,-0.0
129,422.0,-4.18,1.72,5.53,-0.76,-0.09,0.04
130,425.0,-4.04,1.75,5.38,-0.78,-0.11,0.08
131,428.0,-3.93,1.74,5.27,-0.76,-0.12,0.13
132,432.0,-3.75,1.55,5.13,-0.67,-0.15,0.17
133,435.0,-3.67,1.54,5.11,-0.56,-0.17,0.2
134,438.0,-3.55,1.5,5.17,-0.48,-0.21,0.22
135,441.0,-3.58,1.39,5.13,-0.39,-0.24,0.25
136,445.0,-3.94,1.51,5.01,-0.24,-0.29,0.26
137,448.0,-4.58,1.72,4.75,-0.16,-0.29,0.28
138,451.0,-4.87,1.56,4.55,-0.15,-0.25,0.29
139,454.0,-4.7,1.47,4.13,-0.07,-0.21,0.29
140,458.0,-4.62,0.97,3.87,-0.04,-0.11,0.29
141,461.0,-4.67,0.54,3.9,-0.14,-0.0,0.28
142,464.0,-4.71,0.17,4.14,-0.23,0.09,0.25
143,467.0,-4.69,0.17,4.3,-0.24,0.14,0.2
144,471.0,-4.94,0.2,4.45,-0.25,0.19,0.14
145,474.0,-4.69,0.3,4.3,-0.2,0.21,0.1
146,477.0,-5.33,0.37,4.43,-0.16,0.24,0.05
147,480.0,-6.48,0.47,4.65,-0.41,0.27,-0.09
148,484.0,-5.13,1.02,4.94,-0.69,0.28,-0.23
149,487.0,-3.9,1.19,5.26,-0.88,0.19,-0.3
150,490.0,-3.94,1.25,5.33,-1.02,0.05,-0.35
151,493.0,-4.1,1.26,5.13,-1.13,-0.09,-0.39
152,497.0,-3.29,0.97,5.04,-1.26,-0.18,-0.4
153,500.0,-4.42,0.8,4.99,-1.38,-0.35,-0.5
154,503.0,-4.36,0.69,4.81,-1.47,-0.37,-0.52
155,506.0,-5.21,0.63,4.92,-1.43,-0.42,-0.61
156,510.0,-5.72,0.95,4.91,-1.5,-0.4,-0.68
157,513.0,-5.58,1.43,5.15,-1.55,-0.37,-0.71
158,516.0,-5.15,1.93,5.28,-1.61,-0.35,-0.67
159,519.0,-4.8,2.27,5.39,-1.66,-0.33,-0.59
160,523.0,-4.57,2.34,5.41,-1.76,-0.32,-0.46
161,526.0,-4.5,2.18,5.41,-1.83,-0.3,-0.38
162,529.0,-4.65,2.01,5.43,-1.91,-0.26,-0.35
163,532.0,-4.79,1.9,5.49,-1.95,-0.18,-0.36
164,536.0,-4.78,1.67,5.54,-1.97,-0.13,-0.37
165,539.0,-4.46,1.56,5.45,-1.9,-0.11,-0.35
166,542.0,-4.1,1.41,5.48,-1.75,-0.09,-0.28
167,545.0,-4.32,1.58,5.36,-1.55,-0.12,-0.19
168,549.0,-5.07,1.7,5.1,-1.35,-0.14,-0.04
169,552.0,-5.47,1.34,5.03,-1.21,-0.12,0.04
170,555.0,-5.63,0.88,5.08,-1.08,-0.08,0.09
171,558.0,-5.52,0.53,5.07,-0.98,-0.05,0.13
172,562.0,-5.31,0.28,5.0,-0.91,-0.0,0.15
173,565.0,-5.22,0.1,5.04,-0.91,0.03,0.15
174,568.0,-5.14,-0.13,5.11,-0.96,0.04,0.15
175,571.0,-4.89,-0.36,5.29,-1.02,0.05,0.13
176,575.0,-3.86,-0.64,6.34,-1.1,-0.41,0.16
177,578.0,-4.13,-0.65,6.02,-1.21,-0.75,0.1
178,581.0,-4.59,-0.43,5.76,-1.33,-0.93,0.03
179,584.0,-5.21,-0.74,5.61,-1.33,-1.05,-0.11
180,588.0,-5.09,-1.28,5.17,-1.3,-1.04,-0.4
181,591.0,-4.77,-1.4,4.99,-1.28,-1.05,-0.66
182,594.0,-4.85,-0.81,4.23,-1.45,-1.03,-0.86
183,598.0,-4.04,0.33,4.51,-1.54,-0.87,-0.95
184,601.0,-3.16,1.32,4.55,-1.67,-1.12,-0.74
185,604.0,-2.95,2.36,3.32,-1.73,-1.21,-0.61
186,607.0,-3.8,3.32,1.9,-1.62,-1.12,-0.46
187,611.0,-4.84,4.07,0.06,-1.28,-0.97,-0.34
188,614.0,-5.45,4.59,-2.38,-0.58,-0.37,-0.15
189,617.0,-5.38,4.53,-2.49,-0.34,0.25,0.02
190,620.0,-4.98,4.38,-1.54,-0.08,0.8,0.24
191,624.0,-4.46,4.31,-0.05,0.14,1.21,0.5
192,627.0,-3.85,4.14,1.86,0.15,1.58,0.9
193,630.0,-3.69,3.8,3.09,-0.02,1.76,1.18
194,633.0,-4.01,3.14,4.03,-0.2,1.86,1.4
195,637.0,-4.56,2.24,4.67,-0.35,1.92,1.56
196,640.0,-5.26,0.78,5.14,-0.47,1.92,1.7
197,643.0,-5.57,-0.3,5.44,-0.53,1.93,1.74
198,646.0,-5.71,-1.33,5.85,-0.59,1.89,1.74
199,650.0,-5.77,-2.19,6.31,-0.75,1.87,1.68
200,653.0,-5.59,-3.24,7.3,-1.08,1.75,1.55
201,656.0,-5.09,-4.16,7.61,-1.07,1.48,1.52
202,659.0,-5.15,-4.41,6.92,-1.06,1.25,1.45
203,663.0,-5.36,-4.42,6.6,-1.47,1.18,1.38
204,666.0,-5.06,-4.77,6.54,-1.93,1.03,1.27
205,669.0,-5.01,-5.05,5.42,-1.91,0.92,1.17
206,672.0,-5.17,-4.88,4.21,-2.06,1.05,1.06
207,676.0,-5.06,-4.81,3.74,-2.18,1.3,1.0
208,679.0,-4.59,-4.42,2.91,-1.87,1.6,0.95
209,682.0,-4.35,-3.89,2.41,-1.62,1.88,0.92
210,685.0,-4.27,-3.34,2.2,-1.41,2.18,0.87
211,689.0,-4.43,-2.84,2.3,-1.15,2.45,0.8
212,692.0,-4.76,-2.39,2.62,-0.86,2.7,0.73
213,695.0,-5.24,-1.97,3.37,-0.45,3.03,0.7
214,698.0,-5.58,-1.77,4.16,-0.05,3.25,0.73
215,702.0,-5.84,-1.63,5.08,0.43,3.39,0.79
216,705.0,-6.11,-1.5,6.01,0.93,3.47,0.86
217,708.0,-6.44,-1.2,7.38,1.44,3.48,0.93
218,711.0,-6.74,-0.87,8.47,1.67,3.41,0.95
219,714.0,-7.06,-0.47,9.51,1.74,3.27,0.93
220,718.0,-7.34,-0.04,10.43,1.63,3.07,0.88
221,721.0,-7.49,0.47,11.36,1.17,2.7,0.8
222,724.0,-7.34,0.72,11.74,0.68,2.34,0.73
223,727.0,-7.01,0.78,11.82,0.12,1.92,0.67
224,731.0,-6.57,0.65,11.57,-0.43,1.45,0.61
225,734.0,-6.16,0.36,10.97,-0.95,0.98,0.55
226,737.0,-5.67,-0.12,9.81,-1.51,0.38,0.45
227,740.0,-5.47,-0.47,8.83,-1.82,-0.03,0.36
228,744.0,-5.37,-0.73,7.86,-2.01,-0.39,0.25
229,747.0,-5.39,-0.9,6.97,-2.12,-0.71,0.14
230,750.0,-5.46,-0.96,5.98,-2.16,-1.06,-0.01
231,753.0,-5.48,-0.91,5.43,-2.13,-1.27,-0.09
232,757.0,-5.48,-0.82,4.98,-2.09,-1.42,-0.15
233,760.0,-5.45,-0.71,4.61,-2.04,-1.51,-0.18
234,763.0,-5.5,-0.59,4.2,-1.94,-1.55,-0.17
235,766.0,-5.63,-0.49,3.94,-1.84,-1.52,-0.14
236,770.0,-5.84,-0.4,3.74,-1.7,-1.43,-0.08
237,773.0,-6.13,-0.3,3.53,-1.48,-1.23,0.03
238,776.0,-6.34,-0.22,3.43,-1.29,-1.03,0.14
239,780.0,-6.48,-0.13,3.39,-1.08,-0.81,0.26
240,783.0,-6.55,-0.02,3.38,-0.85,-0.56,0.38
241,786.0,-6.56,0.27,3.4,-0.52,-0.23,0.56
242,789.0,-6.57,0.57,3.51,-0.28,0.02,0.7
243,793.0,-6.62,0.92,3.71,-0.03,0.26,0.84
244,796.0,-6.74,1.25,3.8,0.15,0.45,1.0
245,799.0,-7.41,1.36,2.57,-0.48,0.52,1.23
246,802.0,-8.02,1.11,1.73,-1.26,0.6,1.3
247,805.0,-10.71,0.74,4.72,-1.39,0.65,1.32
248,809.0,-14.05,-0.4,9.74,-1.37,0.36,1.25
249,812.0,-12.81,0.71,5.25,-1.74,-0.21,1.18
250,815.0,-11.22,0.92,2.86,-2.06,-0.08,1.23
251,818.0,-10.22,1.44,3.93,-1.9,-0.13,1.19
252,822.0,-9.49,1.17,5.93,-2.25,-0.32,1.27
253,825.0,-8.36,1.37,4.81,-2.33,-0.76,1.28
254,828.0,-6.96,1.07,8.8,-2.02,-1.37,1.3
255,831.0,-6.5,1.41,6.05,-1.42,-1.56,1.35
256,835.0,-5.88,1.69,4.9,-0.7,-1.61,1.47
257,838.0,-5.38,1.41,4.84,-0.31,-1.45,1.68
258,841.0,-4.66,0.28,5.21,0.0,-1.18,1.93
259,844.0,-4.23,-0.67,4.55,0.13,-1.07,2.05
260,848.0,-3.95,-1.94,4.7,0.21,-1.09,2.12
261,851.0,-4.09,-2.9,4.48,0.15,-1.01,2.12
262,854.0,-4.47,-3.64,4.62,0.06,-0.81,2.07
263,857.0,-4.77,-3.54,4.47,0.1,-0.58,2.02
264,861.0,-5.24,-3.1,4.36,0.09,-0.27,1.99
265,864.0,-5.69,-2.73,4.69,0.07,0.02,1.97
266,867.0,-6.13,-2.58,4.84,0.05,0.24,1.98
267,870.0,-6.45,-2.67,4.68,0.05,0.24,1.95
268,874.0,-6.76,-2.89,4.69,0.04,0.21,1.9
269,877.0,-6.94,-3.12,4.8,0.07,0.1,1.81
270,880.0,-7.13,-3.28,4.55,0.05,0.06,1.72
271,883.0,-7.09,-3.65,4.92,-0.01,0.05,1.53
272,886.0,-6.93,-3.83,4.85,0.02,-0.03,1.37
273,890.0,-6.64,-3.87,4.81,0.04,-0.11,1.19
274,893.0,-6.26,-3.77,4.85,0.06,-0.23,1.02
275,896.0,-5.68,-3.65,4.83,0.08,-0.41,0.84
276,899.0,-5.27,-3.46,4.97,0.08,-0.51,0.72
277,903.0,-5.02,-3.22,4.64,0.04,-0.55,0.63
278,906.0,-4.64,-3.12,4.7,0.06,-0.57,0.52
279,909.0,-4.24,-3.02,4.74,0.07,-0.53,0.4
280,912.0,-3.96,-2.96,4.89,0.04,-0.49,0.3
281,916.0,-3.68,-2.86,4.98,-0.05,-0.44,0.22
282,919.0,-3.74,-2.76,4.74,-0.13,-0.38,0.15
283,922.0,-4.31,-2.43,4.37,-0.04,-0.25,0.09
284,925.0,-4.66,-1.81,4.49,0.09,-0.14,0.08
285,929.0,-4.87,-1.34,4.53,0.17,-0.03,0.1
286,932.0,-5.12,-1.04,4.86,0.23,0.09,0.13
287,935.0,-5.5,-0.69,4.82,0.14,0.19,0.15
288,938.0,-5.79,-0.54,4.82,0.1,0.22,0.13
289,942.0,-5.88,-0.45,4.81,0.09,0.24,0.1
290,945.0,-5.9,-0.4,4.8,0.09,0.24,0.08
291,948.0,-5.88,-0.37,4.75,0.09,0.23,0.07
292,951.0,-5.82,-0.37,4.75,0.11,0.2,0.07
293,955.0,-5.93,-0.33,4.79,0.1,0.16,0.07
294,958.0,-5.95,-0.33,4.77,0.09,0.1,0.06
295,961.0,-5.96,-0.35,4.77,0.09,0.02,0.03
296,964.0,-5.9,-0.34,4.77,0.09,-0.1,-0.02
297,968.0,-5.87,-0.35,4.77,0.08,-0.17,-0.05
298,971.0,-5.85,-0.34,4.76,0.08,-0.23,-0.08
299,974.0,-5.85,-0.36,4.77,0.08,-0.27,-0.09
300,977.0,-5.81,-0.34,4.75,0.07,-0.3,-0.11
301,981.0,-5.81,-0.35,4.76,0.07,-0.31,-0.11
302,984.0,-5.79,-0.34,4.75,0.07,-0.32,-0.11
303,987.0,-5.75,-0.34,4.75,0.07,-0.31,-0.12
304,990.0,-5.72,-0.34,4.75,0.08,-0.27,-0.11
305,994.0,-5.69,-0.33,4.75,0.08,-0.23,-0.09
306,997.0,-5.68,-0.32,4.73,0.08,-0.17,-0.07
307,1000.0,-5.67,-0.31,4.73,0.08,-0.12,-0.04
308,1003.0,-5.71,-0.31,4.74,0.07,-0.05,-0.01
309,1007.0,-5.72,-0.3,4.74,0.07,-0.01,0.0
310,1010.0,-5.73,-0.31,4.75,0.07,0.03,0.01
311,1013.0,-5.75,-0.32,4.75,0.07,0.05,0.02
312,1016.0,-5.77,-0.31,4.73,0.08,0.08,0.03
313,1020.0,-5.79,-0.31,4.74,0.09,0.09,0.04
314,1023.0,-5.82,-0.3,4.76,0.09,0.09,0.04
315,1026.0,-5.84,-0.3,4.76,0.09,0.07,0.03
316,1029.0,-5.86,-0.31,4.78,0.08,0.04,0.02
317,1032.0,-5.87,-0.31,4.78,0.08,0.0,0.0
318,1036.0,-5.87,-0.3,4.8,0.08,-0.04,-0.01
319,1039.0,-5.88,-0.32,4.79,0.08,-0.07,-0.02
320,1042.0,-5.87,-0.33,4.78,0.08,-0.1,-0.03
321,1045.0,-5.86,-0.33,4.77,0.08,-0.14,-0.04
322,1049.0,-5.87,-0.33,4.78,0.08,-0.17,-0.05
323,1052.0,-5.83,-0.33,4.77,0.08,-0.18,-0.06
324,1055.0,-5.81,-0.34,4.77,0.08,-0.19,-0.07
325,1059.0,-5.76,-0.33,4.77,0.08,-0.19,-0.07
326,1062.0,-5.75,-0.34,4.76,0.08,-0.18,-0.07
327,1065.0,-5.72,-0.34,4.76,0.08,-0.17,-0.06
328,1068.0,-5.72,-0.33,4.76,0.08,-0.14,-0.05
329,1072.0,-5.71,-0.33,4.76,0.08,-0.11,-0.04
330,1075.0,-5.73,-0.33,4.76,0.08,-0.09,-0.03
331,1078.0,-5.74,-0.32,4.76,0.08,-0.06,-0.02
332,1081.0,-5.73,-0.34,4.77,0.08,-0.03,-0.01
333,1085.0,-5.74,-0.33,4.77,0.08,-0.01,-0.0
334,1088.0,-5.75,-0.33,4.78,0.08,0.0,-0.0
335,1091.0,-5.77,-0.34,4.78,0.08,0.01,0.0
336,1094.0,-5.76,-0.33,4.75,0.08,0.01,0.01
337,1098.0,-5.79,-0.34,4.77,0.08,0.0,0.0
338,1101.0,-5.8,-0.31,4.77,0.08,-0.01,0.0
339,1104.0,-5.79,-0.31,4.78,0.08,-0.02,-0.0
340,1107.0,-5.79,-0.33,4.79,0.08,-0.04,-0.01
341,1111.0,-5.8,-0.34,4.81,0.08,-0.06,-0.02
342,1114.0,-5.81,-0.34,4.81,0.08,-0.08,-0.02
343,1117.0,-5.8,-0.34,4.78,0.08,-0.09,-0.03
344,1120.0,-5.82,-0.35,4.8,0.08,-0.11,-0.03
345,1124.0,-5.79,-0.35,4.82,0.08,-0.12,-0.04
346,1127.0,-5.79,-0.37,4.8,0.07,-0.12,-0.04
347,1130.0,-5.78,-0.37,4.77,0.07,-0.13,-0.05
348,1133.0,-5.77,-0.36,4.76,0.07,-0.12,-0.04
349,1137.0,-5.76,-0.35,4.77,0.07,-0.12,-0.04
350,1140.0,-5.75,-0.35,4.78,0.07,-0.11,-0.04
351,1143.0,-5.73,-0.36,4.79,0.07,-0.1,-0.03
352,1146.0,-5.72,-0.36,4.8,0.08,-0.08,-0.03
353,1150.0,-5.73,-0.37,4.81,0.08,-0.07,-0.02
354,1153.0,-5.72,-0.37,4.8,0.08,-0.06,-0.02
355,1156.0,-5.72,-0.36,4.77,0.08,-0.04,-0.02
356,1160.0,-5.71,-0.36,4.76,0.08,-0.03,-0.01
357,1163.0,-5.74,-0.36,4.78,0.08,-0.03,-0.01
358,1166.0,-5.73,-0.35,4.78,0.08,-0.03,-0.01
359,1169.0,-5.74,-0.35,4.78,0.08,-0.03,-0.01
360,1173.0,-5.76,-0.35,4.78,0.08,-0.03,-0.01
361,1176.0,-5.76,-0.35,4.77,0.08,-0.04,-0.01
362,1179.0,-5.77,-0.35,4.77,0.08,-0.05,-0.01
363,1182.0,-5.76,-0.34,4.78,0.08,-0.05,-0.02
364,1186.0,-5.76,-0.34,4.74,0.08,-0.07,-0.02
365,1189.0,-5.38,-0.28,4.5,0.07,-0.07,-0.03
366,1192.0,-5.03,-0.2,4.17,0.06,-0.07,-0.03
367,1195.0,-4.98,-0.18,4.32,0.05,-0.06,-0.04
368,1199.0,-5.43,-0.23,4.69,0.04,-0.03,-0.08
369,1202.0,-5.56,-0.2,4.93,0.02,-0.04,-0.13
370,1205.0,-5.58,-0.1,5.12,-0.01,-0.05,-0.16
371,1209.0,-5.62,0.04,5.28,-0.05,0.03,-0.13
372,1212.0,-5.6,0.14,5.13,-0.01,0.08,-0.05
373,1215.0,-5.74,0.08,4.8,0.08,0.13,0.09
374,1218.0,-5.94,-0.21,5.07,0.2,0.23,0.23
375,1221.0,-6.16,-0.57,4.68,0.15,0.28,0.32
376,1225.0,-6.56,-0.94,4.71,0.12,0.23,0.29
377,1228.0,-6.54,-0.77,4.77,0.12,0.09,0.17
378,1231.0,-6.48,-0.65,4.9,0.11,-0.11,0.02
379,1234.0,-6.35,-0.52,4.84,0.09,-0.26,-0.1
380,1238.0,-5.87,-0.4,4.72,0.09,-0.33,-0.17
381,1241.0,-5.73,-0.37,4.65,0.07,-0.33,-0.15
382,1244.0,-5.71,-0.39,4.59,0.09,-0.32,-0.11
383,1247.0,-5.76,-0.35,4.78,0.1,-0.32,-0.07
384,1251.0,-5.91,-0.38,4.84,0.1,-0.37,-0.06
385,1254.0,-5.94,-0.36,4.9,0.1,-0.4,-0.08
386,1257.0,-5.93,-0.35,4.93,0.08,-0.4,-0.1
387,1260.0,-5.84,-0.35,4.87,0.05,-0.35,-0.11
388,1264.0,-5.71,-0.37,4.72,0.05,-0.23,-0.09
389,1267.0,-5.61,-0.35,4.74,0.07,-0.15,-0.06
390,1270.0,-5.57,-0.34,4.74,0.08,-0.08,-0.01
391,1274.0,-5.6,-0.35,4.73,0.1,-0.04,0.02
392,1277.0,-5.65,-0.31,4.86,0.12,-0.02,0.04
393,1280.0,-5.73,-0.34,4.82,0.11,-0.0,0.04
394,1283.0,-5.68,-0.33,4.75,0.1,0.03,0.03
395,1286.0,-5.64,-0.33,4.69,0.09,0.06,0.02
396,1290.0,-5.61,-0.31,4.69,0.08,0.09,0.01
397,1293.0,-5.64,-0.31,4.73,0.08,0.09,0.01
398,1296.0,-5.7,-0.33,4.81,0.08,0.07,0.02
399,1299.0,-5.75,-0.34,4.85,0.08,0.03,0.03
400,1303.0,-5.83,-0.36,4.86,0.08,-0.03,0.01
401,1306.0,-5.83,-0.36,4.86,0.08,-0.07,-0.0
402,1309.0,-5.83,-0.35,4.87,0.08,-0.1,-0.02
403,1312.0,-5.79,-0.36,4.85,0.08,-0.12,-0.04
404,1316.0,-5.75,-0.36,4.85,0.08,-0.14,-0.06
405,1329.0,-8.41,-20.97,5.1,0.06,-0.21,-1.02
406,1332.0,-8.74,-21.85,6.12,-0.32,-0.09,-1.91
407,1336.0,-6.93,-9.89,7.61,-1.05,-0.09,-2.61
408,1339.0,-4.54,15.54,6.48,-1.99,-0.28,-2.22
409,1342.0,-6.6,6.88,4.69,-1.95,-0.64,-1.87
410,1346.0,-6.56,4.29,4.59,-1.82,-0.81,-2.08
411,1349.0,-8.31,2.33,3.86,-1.48,-1.16,-2.53
412,1352.0,-9.02,0.61,5.28,-1.13,-0.85,-2.55
413,1355.0,-8.56,-0.14,7.08,-0.58,-0.88,-2.41
414,1359.0,-7.99,-0.54,6.4,-0.12,-1.09,-2.13
415,1362.0,-7.39,-0.71,5.77,0.3,-1.35,-1.87
416,1365.0,-6.96,-1.02,5.73,0.45,-1.61,-1.8
417,1368.0,-6.46,-0.97,4.87,0.43,-1.78,-1.83
418,1372.0,-6.15,-1.41,5.65,0.02,-1.69,-1.9
419,1375.0,-6.17,-0.74,5.62,-0.12,-1.54,-1.92
420,1378.0,-6.21,-0.13,4.33,-0.45,-1.31,-1.85
421,1382.0,-6.15,0.89,2.34,-1.24,-0.92,-1.64
422,1385.0,-5.82,2.59,-2.71,-3.79,-0.09,-1.08
423,1388.0,-5.25,6.34,-1.16,-6.49,0.52,-0.5
424,1391.0,-7.04,11.11,1.91,-5.55,-0.63,0.33
425,1395.0,-3.29,11.38,1.89,-4.65,-0.67,1.31
426,1398.0,1.16,11.14,0.44,-2.63,-0.39,2.35
427,1401.0,2.22,9.4,-0.55,-0.25,0.29,3.06
428,1404.0,2.26,8.02,-1.75,2.77,1.08,3.26
429,1407.0,2.2,6.81,-1.58,5.09,2.22,3.32
430,1411.0,2.06,6.11,-0.41,6.3,3.01,3.25
431,1414.0,1.38,4.97,4.22,6.89,3.14,3.32
432,1417.0,-0.61,2.65,6.51,4.73,2.23,3.46
433,1420.0,-3.11,1.51,4.48,2.73,1.93,3.47
434,1424.0,-5.36,0.03,3.14,1.89,1.31,3.47
435,1427.0,-8.2,-1.84,1.75,1.92,0.7,3.35
436,1430.0,-10.96,-5.19,4.36,1.45,0.33,2.89
437,1433.0,-12.72,-6.28,4.79,1.23,0.39,2.37
438,1436.0,-14.03,-7.08,5.31,0.83,-0.09,1.89
439,1440.0,-15.02,-7.61,5.45,0.57,-0.79,1.41
440,1443.0,-15.37,-7.85,5.49,0.33,-1.6,0.82
441,1446.0,-14.95,-7.71,6.01,0.15,-2.22,0.51
442,1449.0,-14.44,-7.24,5.45,-0.1,-2.64,0.27
443,1453.0,-13.49,-6.62,5.48,-0.36,-2.63,0.01
444,1456.0,-11.93,-5.64,5.43,-0.88,-2.36,-0.28
445,1459.0,-10.44,-4.71,5.39,-1.15,-2.16,-0.49
446,1463.0,-8.85,-3.72,5.51,-1.49,-1.86,-0.64
447,1466.0,-6.58,-2.24,5.68,-2.0,-1.47,-0.67
448,1469.0,-5.32,-1.35,5.23,-2.3,-1.12,-0.55
449,1472.0,-4.24,-0.67,4.37,-2.39,-0.67,-0.37
450,1476.0,-3.45,-0.16,3.3,-2.12,-0.12,-0.15
451,1479.0,-2.64,0.2,2.04,-1.18,0.66,0.13
452,1482.0,-2.09,0.46,1.59,-0.13,1.23,0.32
453,1485.0,-1.62,0.67,1.7,1.03,1.74,0.5
454,1489.0,-1.19,0.8,2.28,2.12,2.12,0.69
455,1492.0,-0.92,0.61,3.11,2.98,2.37,0.89
456,1495.0,-1.07,0.03,9.33,3.5,2.17,1.07
457,1498.0,-1.98,-0.64,6.79,1.88,2.32,1.17
458,1501.0,-2.48,-0.84,6.23,1.25,2.02,0.95
459,1505.0,-3.09,-1.04,6.21,1.22,1.59,0.71
460,1508.0,-3.99,-0.94,5.33,0.77,1.07,0.28
461,1511.0,-4.25,-0.57,5.34,0.16,0.91,0.07
462,1514.0,-4.46,-0.33,5.09,0.17,0.45,-0.05
463,1518.0,-4.82,-0.32,5.03,0.2,-0.01,-0.08
464,1521.0,-5.46,-0.46,5.06,0.17,-0.5,-0.16
465,1524.0,-5.96,-0.62,5.06,0.19,-0.86,-0.23
466,1527.0,-6.44,-0.71,5.05,0.15,-1.19,-0.36
467,1531.0,-6.56,-0.61,5.09,0.16,-1.37,-0.51
468,1534.0,-6.37,-0.24,5.78,-0.05,-1.5,-0.67
469,1537.0,-6.25,0.0,6.05,-0.42,-1.55,-0.69
470,1541.0,-6.17,0.19,5.82,-0.71,-1.52,-0.67
471,1544.0,-6.12,0.26,5.55,-0.94,-1.45,-0.61
472,1547.0,-6.22,0.26,4.9,-1.09,-1.28,-0.49
473,1550.0,-6.34,0.17,4.37,-1.02,-1.03,-0.41
474,1554.0,-6.44,0.14,3.99,-0.82,-0.72,-0.32
475,1557.0,-6.55,-0.02,3.69,-0.51,-0.39,-0.21
476,1560.0,-5.88,-0.3,3.55,0.02,0.03,-0.08
477,1563.0,-5.59,-0.4,3.6,0.45,0.32,0.04
478,1567.0,-5.54,-0.43,3.75,0.85,0.56,0.15
479,1570.0,-5.5,-0.46,3.95,1.2,0.76,0.26
480,1573.0,-5.62,-0.3,6.46,1.48,0.92,0.37
481,1576.0,-5.94,-0.38,5.94,0.86,0.94,0.41
482,1580.0,-6.03,-0.41,5.42,0.73,0.98,0.34
483,1583.0,-6.0,-0.15,5.52,0.54,0.83,0.26
484,1586.0,-5.86,0.11,5.3,0.35,0.63,0.14
485,1589.0,-5.69,0.09,5.2,0.26,0.52,0.07
486,1592.0,-5.7,0.03,5.15,0.2,0.35,0.05
487,1596.0,-5.74,-0.04,5.09,0.16,0.16,0.04
488,1599.0,-5.76,-0.1,5.02,0.14,0.01,0.02
489,1602.0,-5.87,-0.14,5.01,0.11,-0.22,-0.04
490,1605.0,-5.88,-0.15,5.0,0.1,-0.4,-0.1
491,1609.0,-5.87,-0.15,4.98,0.09,-0.52,-0.17
492,1612.0,-5.75,-0.11,5.1,0.05,-0.59,-0.22
493,1615.0,-5.66,-0.12,5.18,-0.09,-0.65,-0.24
494,1618.0,-5.56,-0.15,5.05,-0.15,-0.64,-0.24
495,1622.0,-5.49,-0.16,5.0,-0.19,-0.59,-0.21
496,1625.0,-5.45,-0.2,4.92,-0.22,-0.54,-0.18
497,1628.0,-5.39,-0.24,4.76,-0.21,-0.41,-0.13
498,1632.0,-5.39,-0.28,4.67,-0.16,-0.29,-0.09
499,1635.0,-5.35,-0.31,4.56,-0.08,-0.16,-0.06
500,1638.0,-5.35,-0.35,4.42,0.08,0.03,-0.01
501,1641.0,-5.33,-0.37,4.39,0.24,0.16,0.03
502,1645.0,-5.36,-0.36,4.44,0.4,0.28,0.07
503,1648.0,-5.46,-0.24,5.11,0.52,0.35,0.12
504,1651.0,-5.54,-0.13,5.33,0.34,0.38,0.17
505,1654.0,-5.66,-0.19,5.06,0.27,0.4,0.17
506,1657.0,-5.73,-0.18,5.1,0.21,0.35,0.14
507,1661.0,-5.59,-0.18,4.92,0.17,0.29,0.09
508,1664.0,-5.53,-0.18,4.84,0.14,0.25,0.05
509,1667.0,-5.84,-0.02,4.95,0.11,0.17,0.03
510,1670.0,-6.01,0.3,4.8,0.1,0.1,0.04
511,1674.0,-5.99,0.43,4.64,0.12,0.01,0.06
512,1677.0,-6.36,0.5,4.73,0.14,-0.08,0.04
513,1680.0,-6.39,0.49,4.62,0.15,-0.14,-0.04
514,1683.0,-6.31,0.46,4.54,0.18,-0.21,-0.17
515,1687.0,-3.01,-2.87,5.22,0.16,-0.48,-0.22
516,1690.0,4.1,-14.64,5.39,0.27,-1.99,-0.12
517,1693.0,0.3,-14.5,5.92,0.29,-3.73,-0.67
518,1696.0,-5.71,-7.89,5.55,-0.25,-1.71,-1.53
519,1700.0,-6.55,-5.83,7.1,-0.91,-1.15,-2.1
520,1703.0,-7.6,-3.77,3.95,-1.16,-0.84,-2.66
521,1716.0,-5.87,3.46,5.3,-0.72,-0.87,-1.71
522,1720.0,-6.76,2.71,4.72,-0.67,-0.61,-1.14
523,1723.0,-7.94,1.77,3.04,-0.29,-0.19,-0.87
524,1726.0,-8.4,0.81,1.28,0.73,1.01,-1.02
525,1729.0,-7.11,-0.57,1.4,1.74,2.04,-1.08
526,1733.0,-5.95,-1.84,7.16,2.24,2.6,-0.82
527,1736.0,-5.86,-3.06,9.24,1.96,2.62,-0.51
528,1739.0,-5.34,-3.12,11.44,2.92,2.43,-0.22
529,1742.0,-5.43,-3.24,9.83,4.41,1.8,-0.05
530,1746.0,-6.34,-3.43,6.64,4.67,1.83,-0.06
531,1749.0,-7.22,-3.61,5.49,4.49,2.33,-0.23
532,1752.0,-7.51,-3.29,6.15,4.53,2.64,-0.45
533,1755.0,-7.79,-2.27,7.4,5.27,2.58,-0.7
534,1759.0,-7.4,-1.29,8.28,5.54,2.35,-0.78
535,1762.0,-6.93,-0.79,8.76,4.72,1.9,-0.7
536,1765.0,-6.77,-0.31,9.33,3.79,1.46,-0.66
537,1768.0,-6.03,4.98,9.89,3.13,0.88,-0.74
538,1772.0,-4.31,12.27,9.75,3.2,0.43,-0.65
539,1775.0,-2.38,18.22,8.6,3.59,-0.07,-0.18
540,1778.0,-2.18,18.77,6.62,4.21,-0.55,0.62
541,1781.0,-4.94,11.77,4.5,5.15,-0.84,1.73
542,1785.0,-7.75,5.01,3.88,5.49,-0.88,2.25
543,1788.0,-9.93,-0.43,3.62,5.46,-0.83,2.35
544,1791.0,-10.78,-3.56,3.44,5.29,-0.67,2.03
545,1794.0,-9.81,-3.94,3.34,4.86,-0.39,1.31
546,1797.0,-8.5,-2.02,3.33,4.47,-0.19,0.88
547,1801.0,-7.43,0.72,3.43,4.12,-0.0,0.71
548,1804.0,-6.98,2.97,3.69,3.86,0.16,0.83
549,1807.0,-7.13,3.86,4.1,3.68,0.3,1.1
550,1810.0,-7.54,2.99,4.68,3.46,0.47,1.42
551,1814.0,-7.75,1.88,5.16,3.28,0.56,1.49
552,1817.0,-7.69,1.43,5.59,3.08,0.61,1.39
553,1820.0,-7.53,1.98,6.22,2.79,0.6,1.19
554,1823.0,-7.54,3.14,6.71,2.44,0.4,0.92
555,1826.0,-7.74,3.29,7.07,2.33,0.21,0.79
556,1830.0,-7.72,3.72,7.13,2.27,0.01,0.72
557,1833.0,-7.49,4.49,7.05,2.18,-0.18,0.75
558,1836.0,-7.27,4.93,6.94,2.08,-0.39,0.86
559,1839.0,-7.03,4.86,6.91,1.98,-0.63,1.04
560,1843.0,-6.87,4.46,6.97,1.84,-0.81,1.16
561,1846.0,-6.79,4.09,7.04,1.71,-0.98,1.23
562,1849.0,-6.79,3.94,6.97,1.63,-1.16,1.27
563,1852.0,-6.88,4.0,6.51,1.62,-1.32,1.3
564,1855.0,-6.83,4.23,5.83,1.55,-1.42,1.36
565,1859.0,-6.68,4.53,5.69,1.44,-1.42,1.47
566,1862.0,-6.63,4.49,6.11,1.19,-1.4,1.61
567,1865.0,-6.68,4.67,6.18,1.22,-1.47,1.72
568,1868.0,-6.73,4.88,6.23,1.4,-1.53,1.9
569,1872.0,-6.79,4.71,6.22,1.47,-1.57,2.06
570,1875.0,-7.02,4.43,6.3,1.43,-1.58,2.22
571,1878.0,-7.45,3.93,6.64,1.31,-1.59,2.35
572,1881.0,-7.98,3.12,6.97,1.29,-1.65,2.4
573,1885.0,-8.37,2.67,7.35,1.17,-1.69,2.39
574,1888.0,-8.6,2.16,7.92,0.86,-1.75,2.36
575,1891.0,-8.72,1.81,8.39,0.61,-1.88,2.3
576,1894.0,-8.85,1.6,8.81,0.35,-2.05,2.23
577,1898.0,-9.0,1.33,8.97,0.16,-2.35,2.13
578,1901.0,-9.04,1.16,8.73,0.16,-2.59,2.07
579,1904.0,-8.98,1.18,8.11,0.33,-2.81,2.0
580,1907.0,-8.87,1.39,7.62,0.55,-2.97,1.97
581,1910.0,-8.62,1.52,7.24,0.82,-3.15,1.97
582,1914.0,-8.36,1.55,7.23,0.99,-3.27,2.0
583,1917.0,-8.11,1.39,7.11,1.12,-3.41,2.02
584,1920.0,-7.88,1.25,7.02,1.26,-3.51,2.0
585,1923.0,-7.68,1.19,6.85,1.37,-3.63,1.95
586,1927.0,-7.16,1.22,6.32,1.54,-3.78,1.84
587,1930.0,-6.86,1.41,5.78,1.63,-3.83,1.78
588,1933.0,-6.66,1.5,5.44,1.57,-3.82,1.75
589,1936.0,-6.45,1.81,5.19,1.59,-3.78,1.73
590,1940.0,-6.18,1.87,4.67,1.6,-3.7,1.73
591,1943.0,-6.94,-1.64,1.32,0.68,-3.29,1.69
592,1946.0,-7.44,-4.98,0.72,-0.43,-2.69,1.31
593,1949.0,-7.02,-5.29,1.53,-0.3,-2.16,0.78
594,1953.0,-5.99,-1.63,4.05,0.07,-1.9,0.16
595,1956.0,-5.09,2.14,5.55,0.33,-1.84,-0.01
596,1959.0,-4.44,5.7,6.87,0.78,-2.03,0.12
597,1962.0,-4.09,7.98,7.05,1.23,-2.28,0.5
598,1965.0,-3.94,8.47,6.81,1.56,-2.5,0.96
599,1969.0,-3.89,8.4,7.91,2.16,-2.67,1.45
600,1972.0,-3.58,8.76,9.93,3.07,-2.99,1.76
601,1975.0,-3.38,8.71,10.93,3.68,-3.48,2.04
602,1978.0,-3.23,8.07,10.66,3.52,-3.84,2.29
603,1982.0,-2.83,8.33,11.52,3.51,-4.39,2.57
604,1985.0,-2.64,7.63,10.18,3.3,-4.88,2.78
605,1988.0,-2.88,6.44,8.53,2.34,-5.06,2.89
606,1991.0,-2.66,6.21,8.28,2.78,-5.25,2.87
607,1994.0,-2.66,4.12,4.71,2.65,-5.35,2.87
608,1998.0,-2.58,5.37,6.39,3.02,-5.32,2.77
609,2001.0,-2.43,6.63,7.18,4.07,-5.53,2.87
610,2004.0,-2.52,6.73,6.58,4.45,-5.64,3.12
611,2007.0,-2.65,6.42,5.68,4.37,-5.57,3.43
612,2011.0,-2.72,4.54,4.76,3.96,-5.53,3.72
613,2014.0,-2.93,3.36,3.83,3.88,-5.43,3.77
614,2017.0,-2.84,1.76,2.69,3.85,-5.4,3.65
615,2020.0,-2.87,0.74,1.42,3.87,-5.17,3.47
616,2024.0,-2.77,-0.59,0.77,3.62,-4.82,3.15
617,2027.0,-2.99,-1.12,0.37,3.55,-4.58,2.92
618,2030.0,-2.98,-1.35,0.84,3.24,-4.31,2.67
619,2033.0,-3.02,-1.41,1.52,2.84,-4.24,2.46
620,2037.0,-3.5,-1.71,0.35,2.14,-4.61,2.15
621,2040.0,-3.59,-2.02,-1.21,1.55,-4.79,1.89
622,2043.0,-3.29,-2.21,-2.45,0.39,-5.03,1.62
623,2046.0,-3.08,-2.77,-3.98,-1.12,-5.38,1.36
624,2050.0,-2.72,-3.63,-5.9,-3.48,-6.19,0.75
625,2053.0,-3.33,-4.14,-8.11,-4.82,-6.82,0.1
626,2056.0,-3.82,-4.3,-9.56,-5.77,-6.94,-0.78
627,2059.0,-4.19,-4.66,-9.73,-6.11,-6.89,-1.86
628,2063.0,-3.59,-4.46,-9.8,-5.76,-6.52,-3.35
629,2066.0,1.06,1.46,-3.65,-3.33,-4.33,-4.55
630,2069.0,7.57,10.9,14.67,2.02,-1.49,-4.89
631,2073.0,9.91,17.62,27.13,4.34,-1.77,-3.5
632,2076.0,6.88,18.43,27.57,3.27,-2.29,-2.21
633,2079.0,4.61,18.53,25.01,1.71,-3.19,-0.84
634,2082.0,3.35,17.6,17.34,0.74,-4.27,0.56
635,2085.0,2.38,15.79,5.7,1.19,-4.42,1.8
636,2089.0,0.48,11.04,-4.27,3.92,-3.17,2.79
637,2092.0,0.02,7.52,-5.32,5.87,-2.15,2.97
638,2095.0,1.2,4.69,-2.7,6.27,-1.53,2.8
639,2098.0,2.92,2.15,1.34,5.35,-1.36,2.35
640,2102.0,4.03,0.56,5.71,3.94,-1.55,1.77
641,2105.0,4.63,0.54,9.33,2.41,-2.24,1.03
642,2108.0,4.99,1.78,9.42,2.23,-2.89,0.62
643,2111.0,5.0,2.48,8.52,2.18,-3.44,0.45
644,2114.0,4.49,2.14,6.91,2.47,-3.94,0.4
645,2118.0,3.69,1.33,3.68,3.66,-4.44,0.32
646,2121.0,3.43,1.06,0.97,4.41,-4.49,0.23
647,2124.0,3.25,1.08,-1.34,4.63,-4.21,0.13
648,2127.0,2.9,1.21,-2.9,4.68,-3.71,0.04
649,2131.0,2.39,1.57,-3.79,4.96,-3.12,-0.06
650,2134.0,2.2,3.07,-4.41,5.52,-2.26,-0.11
651,2137.0,2.26,4.17,-4.02,5.89,-1.58,-0.03
652,2140.0,2.29,5.14,-2.89,6.26,-1.0,0.13
653,2144.0,2.26,5.64,-1.15,6.56,-0.61,0.36
654,2147.0,2.39,6.39,1.06,6.9,-0.45,0.64
655,2150.0,1.99,6.36,2.24,7.14,-0.56,0.86
656,2153.0,1.21,5.72,2.74,7.41,-0.78,1.02
657,2156.0,-0.18,4.92,3.14,7.62,-1.03,1.16
658,2160.0,-1.76,4.63,3.26,7.76,-1.51,1.26
659,2163.0,-2.14,4.46,2.13,7.41,-2.13,1.21
660,2166.0,-1.45,4.07,1.25,6.92,-2.44,1.11
661,2169.0,-0.73,3.81,0.62,6.52,-2.63,0.97
662,2173.0,0.23,3.88,0.07,6.28,-2.77,0.82
663,2176.0,1.44,4.67,-1.12,5.99,-2.94,0.62
664,2179.0,1.75,5.26,-2.44,5.78,-3.02,0.57
665,2182.0,1.81,6.01,-3.91,5.59,-2.96,0.59
666,2185.0,2.01,6.71,-4.99,5.44,-2.81,0.68
667,2189.0,2.3,6.95,-5.44,5.26,-2.62,0.77
668,2192.0,2.52,6.32,-5.16,4.94,-2.39,0.84
669,2195.0,2.53,5.8,-4.88,4.61,-2.27,0.81
670,2198.0,2.16,5.21,-4.68,4.27,-2.15,0.78
671,2202.0,1.78,4.86,-4.61,3.98,-2.07,0.76
672,2205.0,1.76,4.6,-4.78,3.56,-2.01,0.77
673,2208.0,2.06,4.22,-4.89,3.25,-2.0,0.76
674,2211.0,2.35,3.72,-4.99,2.91,-2.02,0.7
675,2215.0,2.56,3.16,-5.2,2.58,-2.05,0.56
676,2218.0,2.74,2.46,-5.45,2.18,-2.07,0.25
677,2221.0,2.8,2.09,-5.47,1.92,-2.09,-0.06
678,2224.0,2.77,1.99,-5.37,1.68,-2.13,-0.41
679,2228.0,2.55,2.15,-5.06,1.53,-2.19,-0.79
680,2231.0,2.6,2.42,-4.8,1.45,-2.28,-1.17
681,2234.0,3.11,3.07,-4.72,1.41,-2.39,-1.68
682,2237.0,4.26,3.73,-4.88,1.38,-2.45,-2.03
683,2240.0,5.49,4.65,-4.91,1.27,-2.43,-2.32
684,2244.0,6.15,5.58,-4.73,1.22,-2.38,-2.58
685,2247.0,6.89,6.99,-4.45,1.24,-2.25,-2.86
686,2250.0,7.12,7.81,-4.36,1.32,-2.1,-3.0
687,2253.0,7.46,8.81,-4.18,1.49,-1.92,-3.07
688,2257.0,7.58,9.72,-4.35,1.75,-1.78,-3.06
689,2260.0,7.06,10.75,-4.6,2.3,-1.52,-2.92
690,2263.0,6.43,11.8,-4.89,2.78,-1.34,-2.7
691,2266.0,5.8,12.68,-5.36,3.3,-1.15,-2.41
692,2270.0,5.09,13.33,-5.81,3.84,-0.96,-2.05
693,2273.0,4.02,13.68,-6.68,4.48,-0.68,-1.51
694,2276.0,3.73,13.75,-7.44,4.85,-0.48,-1.05
695,2279.0,3.92,13.68,-8.47,5.02,-0.26,-0.62
696,2283.0,4.36,13.6,-9.49,5.0,-0.01,-0.27
697,2286.0,4.82,13.37,-10.26,4.77,0.35,0.06
698,2289.0,5.01,13.1,-10.23,4.52,0.61,0.21
699,2292.0,5.1,12.79,-9.65,4.29,0.8,0.29
700,2296.0,5.21,12.58,-8.72,4.08,0.89,0.31
701,2299.0,5.32,12.67,-7.8,3.91,0.85,0.3
702,2302.0,5.34,12.96,-6.97,3.74,0.63,0.28
703,2305.0,5.23,13.04,-6.81,3.61,0.38,0.27
704,2308.0,5.01,12.94,-7.07,3.43,0.11,0.25
705,2312.0,4.78,12.73,-7.66,3.17,-0.13,0.22
706,2315.0,4.41,12.44,-8.71,2.7,-0.37,0.16
707,2318.0,4.14,12.27,-9.43,2.26,-0.46,0.1
708,2321.0,3.87,12.1,-9.91,1.76,-0.49,0.05
709,2325.0,3.63,11.95,-10.18,1.24,-0.47,-0.01
710,2328.0,3.59,11.77,-10.25,0.74,-0.42,-0.06
711,2331.0,3.69,11.55,-10.08,0.13,-0.33,-0.14
712,2334.0,3.81,11.5,-9.74,-0.28,-0.25,-0.2
713,2338.0,3.85,11.51,-9.22,-0.61,-0.17,-0.25
714,2341.0,3.84,11.66,-8.59,-0.89,-0.11,-0.29
715,2344.0,3.79,12.05,-7.67,-1.28,-0.07,-0.35
716,2347.0,3.99,13.02,-6.97,-1.66,-0.09,-0.41
717,2351.0,3.74,13.04,-6.14,-2.09,-0.15,-0.47
718,2354.0,3.91,12.95,-5.41,-2.59,-0.21,-0.56
719,2357.0,3.87,12.77,-4.81,-3.32,-0.3,-0.74
720,2360.0,4.16,12.8,-4.32,-3.8,-0.36,-0.93
721,2364.0,4.39,13.01,-3.88,-4.3,-0.42,-1.12
722,2367.0,4.45,13.58,-3.19,-4.8,-0.5,-1.42
723,2370.0,4.18,13.08,-2.68,-5.1,-0.6,-1.64
724,2373.0,4.31,13.26,-2.09,-5.31,-0.68,-1.85
725,2377.0,4.13,13.71,-1.54,-5.41,-0.86,-2.04
726,2380.0,4.08,13.67,-0.35,-5.06,-1.32,-2.26
727,2383.0,4.2,13.57,0.3,-4.63,-1.76,-2.34
728,2387.0,4.01,13.68,0.38,-4.13,-2.28,-2.4
729,2390.0,3.54,13.62,0.14,-3.51,-2.89,-2.44
730,2393.0,3.11,13.11,-0.92,-2.87,-3.54,-2.48
731,2396.0,2.61,11.4,-3.59,-2.35,-4.0,-2.52
732,2410.0,4.89,9.61,-10.07,-4.22,-2.75,-2.32
733,2413.0,2.64,10.67,-8.97,-5.0,-2.17,-2.19
734,2416.0,0.5,11.8,-7.22,-5.46,-1.6,-1.86
735,2419.0,0.76,11.35,-6.41,-5.55,-1.36,-1.57
736,2423.0,1.39,10.81,-5.74,-5.56,-1.21,-1.27
737,2426.0,0.17,10.54,-5.73,-5.54,-1.22,-1.07
738,2429.0,-0.65,9.57,-5.49,-5.64,-1.33,-0.96
739,2433.0,0.89,8.12,-4.58,-5.73,-1.45,-0.96
740,2436.0,2.76,7.11,-1.1,-5.28,-1.74,-1.07
741,2439.0,2.33,8.21,-1.04,-3.96,-2.5,-1.25
742,2442.0,1.63,9.25,-2.5,-3.33,-2.9,-1.32
743,2446.0,0.97,9.98,-3.36,-3.04,-3.12,-1.33
744,2449.0,0.4,10.53,-3.83,-2.96,-3.21,-1.3
745,2452.0,-0.04,10.65,-3.97,-3.02,-3.2,-1.24
746,2455.0,-0.02,10.52,-3.9,-3.06,-3.14,-1.21
747,2459.0,0.14,10.31,-3.85,-3.05,-3.03,-1.17
748,2462.0,0.31,10.09,-3.73,-3.12,-2.86,-1.12
749,2465.0,0.32,9.93,-3.62,-3.11,-2.72,-1.08
750,2469.0,0.37,9.75,-3.62,-3.07,-2.66,-1.07
751,2472.0,0.45,9.73,-3.56,-3.05,-2.63,-1.06
752,2475.0,0.57,9.47,-3.5,-3.13,-2.6,-1.04
753,2478.0,0.67,9.12,-3.19,-3.24,-2.59,-1.0
754,2482.0,0.76,9.16,-2.85,-3.48,-2.56,-0.93
755,2485.0,0.82,8.83,-2.63,-3.78,-2.52,-0.84
756,2488.0,0.87,8.73,-2.36,-4.05,-2.47,-0.73
757,2491.0,1.24,8.76,-1.46,-4.31,-2.47,-0.56
758,2495.0,1.45,8.89,-1.05,-4.62,-2.49,-0.41
759,2498.0,1.62,8.84,-0.75,-4.94,-2.51,-0.27
760,2501.0,1.98,8.8,-0.36,-5.28,-2.58,-0.12
761,2504.0,2.38,8.97,-0.1,-5.65,-2.64,0.02
762,2508.0,2.5,8.83,-0.23,-6.11,-2.7,0.18
763,2511.0,2.66,8.66,-0.2,-6.58,-2.75,0.32
764,2514.0,3.13,8.85,0.23,-7.29,-2.82,0.56
765,2517.0,3.18,8.97,0.44,-7.91,-2.88,0.76
766,2521.0,3.49,9.3,0.71,-8.43,-2.95,0.94
767,2524.0,3.53,9.0,0.65,-8.73,-2.96,1.1
768,2527.0,3.82,8.91,1.12,-8.73,-2.89,1.25
769,2530.0,3.85,8.4,1.08,-8.73,-2.69,1.43
770,2534.0,3.94,8.07,1.39,-8.73,-2.48,1.53
771,2537.0,4.0,7.84,1.59,-8.73,-2.23,1.62
772,2540.0,3.98,7.5,1.8,-8.73,-2.01,1.73
773,2543.0,3.97,6.91,2.07,-8.73,-1.73,1.82
774,2546.0,3.89,6.45,2.36,-8.73,-1.54,1.9
775,2550.0,3.99,6.04,2.38,-8.73,-1.34,1.99
776,2553.0,3.97,5.63,2.57,-8.73,-1.03,2.11
777,2556.0,3.8,5.36,2.55,-8.73,-0.78,2.22
778,2559.0,3.37,5.33,2.67,-8.73,-0.2,2.33
779,2563.0,2.74,5.29,2.55,-8.73,0.17,2.33
780,2566.0,2.27,5.26,2.27,-8.73,0.44,2.28
781,2569.0,1.71,5.31,1.92,-8.5,0.78,2.18
782,2572.0,1.2,5.2,2.67,-7.47,1.14,2.06
783,2575.0,0.97,5.03,2.8,-6.51,1.16,2.05
784,2579.0,0.64,4.84,3.37,-5.63,1.18,2.18
785,2582.0,0.74,4.43,3.79,-4.88,1.34,2.43
786,2585.0,0.6,4.17,4.26,-4.14,1.59,2.83
787,2588.0,0.33,3.77,4.54,-3.33,2.05,3.35
788,2592.0,0.83,3.49,3.73,-2.91,2.25,3.32
789,2595.0,1.46,3.31,2.74,-2.8,2.22,2.87
790,2598.0,1.65,3.21,2.24,-2.89,1.97,2.28
791,2601.0,1.63,3.07,1.77,-3.08,1.49,1.69
792,2604.0,1.77,2.69,1.42,-3.44,0.73,0.95
793,2608.0,2.01,2.32,1.33,-3.76,0.17,0.47
794,2611.0,2.26,2.04,1.65,-4.09,-0.24,0.16
795,2614.0,2.38,1.75,2.32,-4.44,-0.46,0.08
796,2617.0,2.54,1.19,3.25,-4.89,-0.44,0.21
797,2621.0,2.76,0.69,3.79,-5.25,-0.33,0.36
798,2624.0,2.98,0.23,4.08,-5.65,-0.21,0.48
799,2627.0,3.19,-0.15,4.26,-6.11,-0.11,0.59
800,2630.0,3.3,-0.47,4.35,-6.65,-0.05,0.68
801,2633.0,3.53,-0.73,4.34,-7.47,-0.05,0.79
802,2637.0,3.71,-0.88,4.41,-8.16,-0.08,0.86
803,2640.0,3.9,-0.96,4.43,-8.73,-0.11,0.95
804,2643.0,4.12,-1.07,4.54,-8.73,-0.08,1.06
805,2646.0,4.39,-1.31,4.81,-8.73,0.06,1.22
806,2650.0,4.58,-1.55,5.01,-8.73,0.21,1.35
807,2653.0,4.72,-1.88,5.36,-8.73,0.37,1.46
808,2656.0,4.74,-2.27,5.62,-8.73,0.52,1.54
809,2659.0,4.8,-2.78,5.66,-8.73,0.69,1.6
810,2663.0,4.75,-3.11,5.54,-8.73,0.79,1.58
811,2666.0,4.57,-3.33,5.28,-8.73,0.91,1.52
812,2669.0,4.35,-3.5,5.18,-8.73,1.04,1.45
813,2672.0,4.18,-3.79,5.38,-8.73,1.12,1.35
814,2676.0,3.59,-3.89,4.36,-8.73,1.39,1.3
815,2679.0,3.72,-4.51,5.27,-8.73,1.62,1.29
816,2682.0,3.49,-5.17,5.84,-8.73,1.6,1.25
817,2685.0,3.07,-5.55,5.43,-8.73,1.53,1.22
818,2688.0,2.79,-6.29,5.39,-8.73,1.68,1.3
819,2692.0,3.22,-6.9,5.48,-8.73,1.55,1.32
820,2695.0,2.5,-7.25,4.93,-8.73,1.52,1.35
821,2698.0,2.75,-7.94,5.16,-8.73,1.64,1.4
822,2701.0,3.0,-8.49,4.8,-8.73,1.57,1.41
823,2705.0,2.92,-8.88,4.46,-8.73,1.51,1.39
824,2708.0,2.8,-9.25,4.3,-8.3,1.42,1.37
825,2711.0,2.65,-9.54,4.04,-7.72,1.28,1.35
826,2714.0,2.55,-9.78,3.76,-7.17,1.11,1.34
827,2718.0,2.32,-10.1,3.3,-6.51,0.92,1.37
828,2721.0,2.21,-10.26,2.92,-6.06,0.79,1.39
829,2724.0,2.24,-10.42,2.62,-5.72,0.71,1.43
830,2727.0,2.19,-10.48,2.28,-5.46,0.65,1.48
831,2730.0,2.19,-10.58,2.01,-5.24,0.62,1.55
832,2734.0,2.09,-10.56,1.77,-5.14,0.59,1.62
833,2737.0,1.98,-10.56,1.66,-5.11,0.56,1.69
834,2740.0,1.83,-10.46,1.42,-5.12,0.54,1.76
835,2743.0,1.88,-10.41,1.4,-5.16,0.53,1.81
836,2747.0,1.73,-10.3,1.3,-5.27,0.48,1.84
837,2750.0,1.64,-10.19,1.24,-5.45,0.48,1.86
838,2753.0,1.55,-10.17,1.38,-5.7,0.52,1.9
839,2756.0,1.51,-10.15,1.32,-5.98,0.54,1.95
840,2760.0,1.41,-10.21,1.08,-6.35,0.6,2.03
841,2763.0,1.33,-10.27,0.82,-6.6,0.66,2.08
842,2766.0,1.13,-10.26,0.44,-6.79,0.71,2.12
843,2769.0,0.96,-10.33,0.23,-6.92,0.79,2.13
844,2772.0,0.83,-10.36,0.02,-6.94,0.82,2.12
845,2776.0,0.54,-10.44,-0.17,-6.82,0.85,2.06
846,2779.0,0.45,-10.5,-0.13,-6.63,0.84,1.99
847,2782.0,0.37,-10.54,-0.17,-6.36,0.78,1.89
848,2785.0,0.28,-10.53,-0.23,-6.06,0.73,1.79
849,2789.0,0.2,-10.5,-0.17,-5.61,0.66,1.66
850,2792.0,0.19,-10.42,-0.09,-5.22,0.58,1.56
851,2795.0,0.18,-10.33,0.01,-4.82,0.53,1.48
852,2798.0,0.17,-10.25,0.15,-4.39,0.48,1.41
853,2802.0,0.22,-10.11,0.19,-3.8,0.43,1.33
854,2805.0,0.26,-10.09,0.23,-3.34,0.42,1.28
855,2808.0,0.3,-10.06,0.2,-2.88,0.39,1.22
856,2811.0,0.34,-10.14,0.21,-2.46,0.4,1.18
857,2815.0,0.45,-10.34,0.35,-1.87,0.4,1.13
858,2818.0,0.49,-10.54,0.38,-1.44,0.37,1.09
859,2821.0,0.5,-10.77,0.4,-1.02,0.35,1.06
860,2824.0,0.47,-11.01,0.41,-0.62,0.32,1.02
861,2827.0,0.36,-11.16,0.25,-0.25,0.3,0.99
862,2831.0,0.3,-11.42,0.28,0.23,0.3,0.98
863,2834.0,0.22,-11.58,0.25,0.57,0.27,0.98
864,2837.0,0.13,-11.68,0.12,0.92,0.25,0.97
865,2840.0,0.02,-11.76,0.0,1.27,0.23,0.98
866,2844.0,-0.12,-11.82,-0.06,1.76,0.2,0.98
867,2847.0,-0.23,-11.82,-0.09,2.14,0.15,0.98
868,2850.0,-0.33,-11.72,-0.2,2.52,0.1,0.98
869,2853.0,-0.37,-11.63,-0.14,2.93,0.04,0.97
870,2857.0,-0.43,-11.5,-0.07,3.35,-0.05,0.94
871,2860.0,-0.45,-11.28,-0.0,3.89,-0.17,0.9
872,2863.0,-0.5,-11.08,0.13,4.27,-0.26,0.85
873,2866.0,-0.48,-10.84,0.32,4.62,-0.35,0.79
874,2870.0,-0.5,-10.57,0.58,4.95,-0.42,0.72
875,2873.0,-0.39,-10.11,0.7,5.35,-0.49,0.63
876,2876.0,-0.21,-9.69,0.64,5.63,-0.47,0.56
877,2879.0,-0.06,-9.39,0.93,5.93,-0.38,0.49
878,2883.0,0.01,-9.13,1.4,6.18,-0.33,0.39
879,2886.0,0.05,-8.57,0.61,6.46,-0.21,0.25
880,2889.0,0.13,-8.47,0.63,6.78,0.16,0.2
881,2892.0,0.26,-8.86,2.25,6.88,0.24,0.09
882,2895.0,0.19,-8.98,2.73,6.87,0.18,-0.05
883,2899.0,-0.01,-8.86,2.2,6.76,0.2,-0.22
884,2902.0,-0.15,-8.8,2.0,6.84,0.32,-0.31
885,2905.0,-0.16,-9.13,3.24,6.88,0.35,-0.38
886,2908.0,-0.21,-9.24,3.33,6.77,0.24,-0.47
887,2912.0,-0.34,-9.11,3.08,6.68,0.38,-0.53
888,2915.0,-0.42,-9.26,3.83,6.57,0.39,-0.56
889,2918.0,-0.61,-9.11,2.66,6.47,0.41,-0.59
890,2921.0,-0.56,-9.2,4.02,6.49,0.63,-0.59
891,2925.0,-0.66,-9.26,5.08,6.21,0.34,-0.65
892,2928.0,-0.71,-8.89,4.84,6.01,0.17,-0.68
893,2931.0,-0.9,-8.52,4.47,5.93,0.07,-0.69
894,2934.0,-1.09,-8.13,4.03,6.01,-0.02,-0.69
895,2938.0,-1.68,-7.72,1.89,6.47,0.25,-0.72
896,2941.0,-1.41,-7.43,4.07,6.87,0.54,-0.78
897,2944.0,-1.33,-7.16,3.66,6.99,0.55,-0.88
898,2947.0,-1.43,-6.72,1.74,7.2,0.86,-0.98
899,2951.0,-1.31,-6.23,2.88,7.71,1.47,-1.1
900,2954.0,-1.21,-5.46,2.88,8.4,2.01,-1.33
901,2957.0,-1.07,-4.81,3.72,8.73,2.29,-1.49
902,2960.0,-1.22,-3.66,3.52,8.73,2.74,-1.69
903,2964.0,-1.11,-1.83,4.26,8.73,3.17,-1.84
904,2967.0,-0.62,-0.35,5.34,8.73,3.12,-1.85
905,2970.0,-0.58,0.12,5.82,8.73,2.94,-1.78
906,2973.0,-0.65,0.4,7.2,8.48,2.71,-1.63
907,2977.0,-0.99,1.07,8.79,7.85,2.2,-1.42
908,2980.0,-2.86,3.69,8.21,7.01,1.46,-0.93
909,2983.0,-4.79,5.92,6.35,6.6,1.17,-0.34
910,2986.0,-5.86,7.43,5.28,6.58,1.11,0.39
911,2990.0,-6.12,6.6,5.24,6.96,1.09,1.17
912,2993.0,-8.42,0.27,1.41,8.73,0.66,1.73
913,2996.0,-9.8,-4.39,-2.77,8.73,0.53,1.69
914,2999.0,-8.4,-4.64,-2.5,8.73,0.96,1.59
915,3002.0,-5.57,-2.28,1.1,8.73,1.31,1.68
916,3006.0,-3.16,1.94,8.08,8.73,1.14,2.06
917,3009.0,-1.26,16.96,33.46,8.73,1.77,3.01
918,3012.0,6.18,10.04,30.67,8.38,-1.7,3.64
919,3015.0,10.56,2.46,15.99,5.85,-4.22,3.92
920,3019.0,13.03,0.28,7.48,4.53,-4.41,4.14
921,3022.0,11.26,0.27,6.12,3.68,-4.47,4.27
922,3025.0,7.13,-1.48,4.48,2.63,-4.06,3.91
923,3028.0,4.35,-4.28,0.04,2.9,-3.53,3.33
924,3031.0,2.45,-4.89,-2.55,2.59,-2.38,2.81
925,3035.0,0.74,-3.99,-3.4,1.7,-1.07,2.42
926,3038.0,-1.55,-2.23,-0.24,-0.2,0.51,2.06
927,3041.0,-2.29,-1.1,3.9,-0.48,1.13,1.75
928,3044.0,-2.07,-0.4,7.6,-0.36,1.29,1.51
929,3048.0,-1.36,0.05,9.21,0.38,1.11,1.27
930,3051.0,-1.8,-1.22,7.27,0.72,0.84,0.91
931,3054.0,-2.51,-1.51,6.48,-0.23,0.83,0.68
932,3057.0,-3.0,-1.5,6.51,-2.13,0.91,0.49
933,3061.0,-2.19,-1.27,7.57,-3.9,0.85,0.33
934,3064.0,-0.14,-0.45,11.74,-4.56,0.65,0.11
935,3077.0,0.38,-1.44,9.91,-2.81,-2.03,-0.73
936,3081.0,0.51,-1.73,7.92,-3.01,-2.09,-0.9
937,3084.0,0.54,-0.95,7.15,-3.4,-1.92,-1.01
938,3087.0,0.5,1.38,9.57,-3.33,-1.39,-0.97
939,3090.0,2.2,3.76,13.0,-2.79,-1.03,-0.77
940,3094.0,2.34,4.58,16.52,-2.14,-1.29,-0.41
941,3097.0,1.16,3.45,18.22,-1.48,-2.2,-0.05
942,3100.0,-0.27,2.38,15.79,-0.71,-3.39,0.39
943,3103.0,-0.77,1.79,14.52,-0.23,-3.98,0.76
944,3106.0,-1.11,0.61,13.84,0.21,-4.58,1.12
945,3110.0,-0.94,-0.51,12.24,0.4,-5.16,1.43
946,3113.0,-0.55,-2.63,7.32,-0.36,-5.62,1.74
947,3116.0,-0.04,-4.9,5.42,-1.33,-5.45,1.75
948,3119.0,-1.12,-6.11,7.55,-2.21,-5.26,1.53
949,3123.0,-2.39,-6.99,10.45,-2.96,-5.48,1.18
950,3126.0,-1.97,-6.65,12.66,-3.83,-6.13,0.61
951,3129.0,-2.09,-5.77,13.75,-4.57,-6.62,0.34
952,3133.0,-2.4,-5.91,15.08,-5.56,-7.12,0.09
953,3136.0,-2.58,-5.97,16.97,-6.69,-7.65,-0.22
954,3139.0,-2.28,-4.32,17.18,-8.24,-8.71,-0.45
955,3142.0,-1.36,-3.26,16.02,-8.73,-8.73,-0.51
956,3146.0,-1.31,-1.47,12.48,-8.4,-8.73,-0.62
957,3149.0,-2.43,0.99,9.17,-4.55,-8.73,-0.88
958,3152.0,-2.07,0.98,2.15,-1.45,-8.73,-0.63
959,3155.0,-1.42,-1.51,-1.38,-1.09,-8.73,-0.35
960,3159.0,-1.15,-3.12,-2.93,-1.15,-8.48,-0.29
961,3162.0,-0.88,-1.66,-2.74,-0.53,-6.82,-0.31
962,3165.0,-0.23,-1.23,-0.82,-0.12,-5.91,-0.24
963,3169.0,1.09,-1.79,1.67,-0.09,-5.42,-0.13
964,3172.0,3.09,-2.25,3.54,-0.49,-5.2,0.0
965,3175.0,5.83,-2.72,4.7,-0.74,-5.21,0.08
966,3178.0,6.51,-2.54,5.99,-0.52,-5.33,0.06
967,3182.0,5.31,-1.91,6.83,-0.91,-5.6,0.1
968,3185.0,4.09,-2.07,7.04,-1.75,-5.88,0.19
969,3188.0,3.87,-2.92,8.06,-3.11,-6.31,0.26
970,3191.0,4.96,-3.68,9.2,-4.04,-6.64,0.28
971,3195.0,4.51,-4.58,8.28,-4.72,-7.09,0.17
972,3198.0,4.4,-4.64,7.09,-4.85,-7.35,-0.04
973,3201.0,3.37,-4.78,4.67,-5.03,-7.48,-0.34
974,3204.0,5.38,-3.86,3.93,-4.9,-7.3,-0.55
975,3208.0,4.68,-4.12,1.8,-4.41,-7.26,-0.76
976,3211.0,10.07,-3.88,1.69,-3.67,-6.99,-0.98
977,3214.0,7.82,-5.11,0.73,-2.85,-6.85,-1.15
978,3217.0,6.34,-4.07,0.61,-2.54,-6.6,-1.33
979,3221.0,5.99,-3.26,0.21,-2.92,-6.4,-1.23
980,3224.0,5.55,-2.26,-0.36,-4.01,-6.09,-1.06
981,3227.0,6.01,-0.97,1.0,-4.57,-5.65,-0.99
982,3231.0,6.48,-0.68,2.6,-3.77,-5.65,-1.02
983,3234.0,6.17,-0.85,3.11,-3.04,-5.78,-0.97
984,3237.0,6.12,-1.65,2.95,-2.54,-5.85,-0.87
985,3240.0,5.55,-2.55,2.45,-2.23,-5.76,-0.8
986,3244.0,5.1,-2.56,2.13,-2.06,-5.61,-0.79
987,3247.0,4.85,-2.25,2.12,-1.81,-5.48,-0.8
988,3250.0,4.85,-1.96,1.38,-1.52,-5.29,-0.78
989,3253.0,4.79,-2.22,0.13,-1.34,-5.14,-0.75
990,3257.0,4.87,-2.34,-1.05,-1.38,-4.76,-0.72
991,3260.0,4.89,-1.9,-0.7,-1.26,-4.35,-0.71
992,3263.0,4.79,-1.12,-0.88,-0.9,-4.11,-0.65
993,3266.0,5.08,-1.04,-1.38,-0.75,-3.74,-0.51
994,3280.0,5.32,-1.7,-0.46,0.01,-2.61,0.25
995,3283.0,6.51,-2.34,0.34,0.12,-2.45,0.48
996,3286.0,7.29,-2.98,0.63,0.18,-2.43,0.61
997,3290.0,8.22,-3.66,0.82,0.2,-2.44,0.7
998,3293.0,9.18,-4.33,1.03,0.2,-2.5,0.73
999,3296.0,10.1,-5.0,1.1,0.19,-2.58,0.71
1000,3299.0,11.12,-5.81,1.07,0.16,-2.72,0.58
1001,3303.0,11.66,-6.25,1.14,0.15,-2.84,0.42
1002,3306.0,11.85,-6.6,1.4,0.12,-2.98,0.23
1003,3309.0,11.6,-6.81,1.77,0.05,-3.16,0.03
1004,3312.0,10.7,-6.78,2.18,-0.09,-3.43,-0.25
1005,3316.0,9.83,-6.55,2.22,-0.21,-3.63,-0.43
1006,3319.0,8.98,-6.2,2.02,-0.32,-3.8,-0.59
1007,3322.0,8.21,-5.85,1.68,-0.37,-3.92,-0.74
1008,3325.0,7.47,-5.34,1.25,-0.37,-4.0,-0.95
1009,3329.0,6.99,-4.82,0.95,-0.35,-4.04,-1.09
1010,3332.0,6.58,-4.36,0.66,-0.34,-4.06,-1.19
1011,3335.0,6.23,-3.94,0.4,-0.36,-4.06,-1.26
1012,3338.0,5.85,-3.47,-0.0,-0.44,-4.07,-1.3
1013,3342.0,5.68,-3.16,-0.41,-0.53,-4.07,-1.29
1014,3345.0,5.67,-2.96,-0.96,-0.61,-4.04,-1.26
1015,3348.0,6.0,-2.79,-1.19,-0.65,-4.01,-1.23
1016,3351.0,6.59,-2.44,-2.32,-0.62,-4.08,-1.18
1017,3355.0,6.92,-2.42,-3.51,-0.63,-3.93,-1.13
1018,3358.0,7.38,-2.16,-3.39,-0.51,-3.79,-1.13
1019,3361.0,7.81,-2.01,-3.85,-0.38,-3.72,-1.1
1020,3365.0,8.11,-1.84,-4.33,-0.27,-3.65,-1.11
1021,3368.0,8.37,-1.56,-4.77,-0.2,-3.57,-1.1
1022,3371.0,8.6,-1.16,-5.26,-0.14,-3.48,-1.09
1023,3374.0,8.94,-0.4,-6.22,-0.1,-3.32,-1.04
1024,3378.0,9.42,0.28,-6.58,-0.03,-3.16,-0.98
1025,3381.0,9.92,1.04,-6.09,0.21,-3.14,-0.88
1026,3384.0,10.1,0.99,-6.66,0.4,-3.13,-0.75
1027,3387.0,10.21,1.17,-6.98,0.66,-3.03,-0.62
1028,3391.0,10.15,1.25,-7.02,0.82,-2.93,-0.5
1029,3394.0,9.91,1.26,-6.79,0.96,-2.82,-0.37
1030,3397.0,9.55,1.14,-6.39,1.09,-2.7,-0.24
1031,3400.0,8.95,0.8,-5.76,1.28,-2.56,-0.05
1032,3404.0,8.47,0.49,-5.57,1.45,-2.44,0.1
1033,3407.0,8.07,0.46,-5.27,1.62,-2.28,0.26
1034,3410.0,7.75,0.52,-5.01,1.86,-2.14,0.46
1035,3413.0,7.16,-0.28,-6.32,1.88,-1.66,0.75
1036,3417.0,6.97,0.05,-5.55,2.0,-1.22,0.94
1037,3420.0,6.98,-0.02,-5.35,2.22,-0.9,1.21
1038,3423.0,6.85,-0.49,-5.62,2.41,-0.5,1.46
1039,3426.0,7.39,0.22,-4.67,2.82,-0.0,1.79
1040,3430.0,7.86,-0.11,-5.06,3.28,0.23,2.11
1041,3433.0,8.17,-0.5,-6.05,3.87,0.42,2.35
1042,3436.0,8.49,-1.51,-6.91,3.95,0.93,2.63
1043,3439.0,9.8,-0.54,-5.42,4.63,1.09,2.8
1044,3442.0,10.43,-2.45,-6.53,5.2,1.27,3.13
1045,3446.0,10.95,-3.07,-5.97,5.47,1.46,3.24
1046,3449.0,11.22,-4.13,-6.17,5.51,1.59,3.37
1047,3452.0,11.73,-4.16,-5.4,5.67,1.62,3.42
1048,3455.0,11.07,-6.08,-7.09,5.5,1.77,3.55
1049,3459.0,11.99,-4.66,-4.5,5.43,1.93,3.54
1050,3462.0,11.87,-5.39,-4.92,5.63,1.85,3.65
1051,3465.0,11.51,-6.19,-4.78,5.52,1.96,3.68
1052,3468.0,11.38,-5.66,-4.04,5.58,1.99,3.68
1053,3472.0,10.72,-6.19,-3.46,5.6,2.07,3.73
1054,3475.0,9.92,-6.53,-2.87,5.54,2.14,3.75
1055,3478.0,9.06,-7.35,-2.05,5.02,2.28,3.74
1056,3481.0,8.95,-6.18,-1.54,4.86,2.32,3.67
1057,3484.0,8.89,-6.19,-1.53,4.92,2.37,3.65
1058,3488.0,8.99,-6.54,-1.72,4.81,2.44,3.6
1059,3491.0,9.43,-6.37,-2.05,4.68,2.54,3.57
1060,3494.0,9.98,-6.55,-2.07,4.6,2.62,3.53
1061,3497.0,10.45,-6.89,-2.31,4.59,2.73,3.39
1062,3501.0,10.81,-6.76,-2.25,4.63,2.84,3.24
1063,3504.0,10.82,-6.3,-2.3,4.8,2.93,3.08
1064,3507.0,10.59,-5.74,-2.52,5.07,3.05,2.92
1065,3510.0,10.21,-5.26,-2.15,5.2,3.15,2.85
1066,3514.0,9.5,-5.14,-2.03,5.15,3.17,2.82
1067,3517.0,8.76,-5.01,-2.5,5.14,3.31,2.75
1068,3520.0,7.81,-4.82,-2.66,5.15,3.58,2.67
1069,3523.0,6.84,-4.83,-2.27,5.15,3.91,2.56
1070,3526.0,5.8,-4.08,-1.17,5.2,4.31,2.41
1071,3530.0,5.26,-3.78,-0.17,5.4,4.52,2.34
1072,3533.0,4.89,-3.37,0.77,5.64,4.66,2.28
1073,3536.0,4.98,-3.01,1.64,5.76,4.69,2.34
1074,3539.0,4.58,-3.84,2.14,5.82,4.65,2.4
1075,3543.0,3.74,-4.1,2.15,5.93,4.7,2.28
1076,3546.0,3.33,-4.24,2.26,6.03,4.85,2.16
1077,3549.0,3.17,-4.4,2.26,6.08,5.05,2.02
1078,3552.0,3.23,-4.73,2.27,6.1,5.27,1.84
1079,3555.0,3.43,-4.68,2.3,6.1,5.5,1.63
1080,3559.0,3.77,-4.73,2.56,6.14,5.78,1.31
1081,3562.0,4.14,-4.78,2.86,6.05,5.93,1.11
1082,3565.0,4.35,-5.07,3.15,5.86,6.0,0.95
1083,3568.0,4.27,-5.29,3.28,5.74,6.06,0.75
1084,3572.0,3.94,-5.05,3.13,5.65,6.16,0.45
1085,3575.0,3.62,-4.99,3.06,5.6,6.27,0.23
1086,3578.0,3.32,-4.97,2.84,5.57,6.41,-0.01
1087,3581.0,3.17,-4.77,2.57,5.54,6.59,-0.28
1088,3584.0,3.17,-4.93,2.24,5.48,6.82,-0.55
1089,3588.0,3.38,-4.77,1.83,5.35,7.21,-0.96
1090,3591.0,3.59,-4.91,2.03,5.2,7.5,-1.24
1091,3594.0,3.57,-5.13,2.2,5.04,7.72,-1.57
1092,3597.0,2.33,-5.16,-1.02,4.72,8.13,-1.85
1093,3601.0,0.74,-3.72,-2.48,4.37,8.73,-2.34
1094,3604.0,1.59,-1.66,1.94,4.68,8.73,-2.58
1095,3607.0,1.15,-1.58,4.13,4.63,8.73,-2.56
1096,3610.0,-0.49,-1.96,4.27,4.21,8.73,-2.46
1097,3614.0,-1.77,-0.92,4.77,3.79,8.73,-2.36
1098,3617.0,-2.21,0.08,6.66,3.48,8.73,-2.0
1099,3620.0,-2.49,-0.23,7.35,3.48,8.73,-1.73
1100,3623.0,-3.04,-1.26,7.3,3.45,8.73,-1.51
1101,3627.0,-3.67,-2.25,7.07,3.36,8.73,-1.4
1102,3630.0,-4.22,-2.73,6.92,3.28,8.73,-1.39
1103,3633.0,-4.46,-2.93,7.01,3.28,8.71,-1.44
1104,3636.0,-4.48,-3.59,7.0,3.36,8.72,-1.52
1105,3639.0,-4.95,-5.48,6.57,3.28,8.73,-1.69
1106,3643.0,-5.78,-4.19,5.76,3.08,8.73,-2.08
1107,3646.0,-5.42,-4.33,7.25,2.98,8.73,-2.24
1108,3649.0,-5.5,-3.35,8.32,3.0,8.73,-2.45
1109,3652.0,-5.6,-0.9,9.11,3.15,8.73,-2.6
1110,3656.0,-4.78,0.48,11.15,3.49,8.73,-2.53
1111,3659.0,-4.17,-1.76,11.66,3.66,8.73,-2.45
1112,3662.0,-4.8,-2.64,10.62,3.42,8.55,-2.45
1113,3665.0,-5.08,-2.26,10.66,3.21,8.28,-2.51
1114,3669.0,-4.85,0.75,11.76,3.21,7.78,-2.51
1115,3672.0,-4.31,0.39,12.98,3.37,7.26,-2.38
1116,3675.0,-3.86,-0.94,13.21,3.39,6.64,-2.29
1117,3678.0,-3.99,-2.1,12.53,3.2,6.05,-2.27
1118,3682.0,-4.17,-4.55,11.14,2.83,5.46,-2.34
1119,3685.0,-4.38,-8.21,10.28,2.48,5.12,-2.58
1120,3688.0,-5.4,-9.05,8.77,1.88,4.88,-3.07
1121,3691.0,-6.23,-3.24,8.16,1.18,4.9,-3.54
1122,3695.0,-5.38,-2.35,10.42,1.09,4.77,-3.75
1123,3698.0,-5.03,1.26,11.22,0.7,4.64,-3.71
1124,3701.0,-4.6,4.24,12.06,0.74,4.38,-3.53
1125,3704.0,-3.93,5.08,12.19,1.01,4.04,-3.1
1126,3708.0,-3.97,3.39,11.54,1.35,3.69,-2.68
1127,3711.0,-4.6,0.92,10.16,1.33,3.41,-2.34
1128,3714.0,-5.07,0.47,9.56,1.15,3.32,-2.18
1129,3717.0,-5.38,0.51,9.33,1.07,3.25,-2.05
1130,3721.0,-5.54,0.57,9.22,1.11,3.18,-1.94
1131,3724.0,-5.77,0.3,9.21,1.22,3.08,-1.77
1132,3727.0,-5.97,0.13,9.19,1.29,3.0,-1.64
1133,3730.0,-6.22,-0.25,8.99,1.36,2.92,-1.52
1134,3733.0,-6.45,-0.57,8.62,1.39,2.88,-1.43
1135,3737.0,-6.69,-0.51,8.39,1.41,2.87,-1.35
1136,3740.0,-6.6,-0.53,8.38,1.46,2.85,-1.3
1137,3743.0,-6.41,-0.68,8.19,1.53,2.79,-1.26
1138,3746.0,-6.23,-1.07,7.92,1.59,2.74,-1.23
1139,3750.0,-6.08,-1.3,7.75,1.54,2.71,-1.23
1140,3753.0,-6.04,-1.25,7.81,1.36,2.68,-1.24
1141,3756.0,-5.53,-1.7,7.74,1.28,2.61,-1.26
1142,3759.0,-5.18,-3.33,7.85,1.13,2.53,-1.31
1143,3763.0,-4.61,-5.01,7.51,0.76,2.42,-1.46
1144,3766.0,-4.39,-8.02,6.2,0.04,2.29,-1.86
1145,3769.0,-6.03,-7.07,5.23,-0.76,2.3,-2.3
1146,3772.0,-6.53,-4.08,4.9,-1.33,2.45,-2.64
1147,3776.0,-6.39,-1.02,5.28,-1.53,2.6,-2.81
1148,3779.0,-5.89,2.12,6.75,-1.35,2.63,-2.75
1149,3782.0,-5.24,3.41,7.44,-0.96,2.49,-2.54
1150,3786.0,-4.54,3.52,7.32,-0.53,2.28,-2.23
1151,3789.0,-3.94,2.33,6.6,-0.18,2.11,-1.91
1152,3792.0,-3.57,0.44,5.27,0.1,2.01,-1.65
1153,3795.0,-0.28,-1.04,4.76,0.15,2.06,-1.66
1154,3798.0,-2.15,-1.81,5.14,0.22,1.96,-1.63
1155,3802.0,-4.22,-2.18,5.1,0.06,1.87,-1.64
1156,3805.0,-6.2,-2.17,4.92,-0.16,1.75,-1.71
1157,3808.0,-6.59,-2.19,4.98,-0.4,1.72,-1.73
1158,3811.0,-7.19,-1.48,5.15,-0.6,1.64,-1.78
1159,3815.0,-7.05,-0.46,5.34,-0.71,1.53,-1.77
1160,3818.0,-6.12,0.51,5.31,-0.68,1.34,-1.63
1161,3821.0,-5.43,0.63,5.55,-0.67,1.22,-1.43
1162,3824.0,-4.93,0.64,6.36,-0.67,1.06,-1.22
1163,3828.0,-4.63,0.94,7.61,-0.67,0.78,-0.99
1164,3831.0,-4.51,0.96,9.24,-0.64,0.21,-0.65
1165,3834.0,-4.73,0.4,9.99,-0.62,-0.35,-0.41
1166,3837.0,-5.23,-0.36,9.98,-0.63,-0.96,-0.24
1167,3841.0,-5.79,-0.77,9.15,-0.7,-1.53,-0.11
1168,3854.0,-7.4,-1.33,4.42,-0.53,-2.77,0.07
1169,3858.0,-7.18,-1.49,4.57,-0.54,-2.84,0.04
1170,3861.0,-6.62,-1.94,5.04,-0.57,-2.94,-0.07
1171,3864.0,-5.69,-2.71,6.62,-0.78,-3.15,-0.32
1172,3867.0,-5.07,-4.48,8.72,-0.89,-3.53,-0.72
1173,3871.0,-5.32,-7.51,10.9,-0.85,-4.27,-1.6
1174,3874.0,-6.09,-7.96,12.71,-1.76,-5.25,-2.96
1175,3877.0,-5.99,-5.32,13.34,-2.37,-6.1,-3.7
1176,3880.0,-5.79,-4.05,12.85,-2.39,-7.09,-4.24
1177,3884.0,-5.83,-2.57,10.74,-2.64,-7.71,-4.43
1178,3887.0,-5.86,-0.32,8.6,-2.53,-8.17,-4.22
1179,3890.0,-5.91,0.06,6.55,-2.13,-8.26,-3.8
1180,3894.0,-5.69,-0.39,4.89,-1.7,-8.11,-3.35
1181,3897.0,-5.58,-0.68,4.31,-1.11,-7.85,-2.92
1182,3900.0,-5.96,-1.25,4.61,-0.39,-7.58,-2.42
1183,3903.0,-6.14,-1.7,5.2,-0.06,-7.42,-2.08
1184,3907.0,-6.19,-1.9,5.23,0.23,-7.37,-1.79
1185,3910.0,-6.35,-2.18,4.2,0.24,-7.2,-1.52
1186,3913.0,-6.5,-2.56,1.78,0.16,-6.6,-1.24
1187,3916.0,-6.31,-3.01,0.2,0.12,-5.85,-1.13
1188,3920.0,-5.71,-3.4,-0.93,0.16,-5.01,-1.11
1189,3923.0,-4.79,-3.62,-1.27,0.35,-3.88,-1.2
1190,3926.0,-4.27,-3.76,-0.28,0.62,-3.16,-1.34
1191,3930.0,-3.9,-3.8,1.66,0.91,-2.65,-1.49
1192,3933.0,-3.65,-3.76,3.88,1.13,-2.37,-1.61
1193,3936.0,-3.48,-3.82,6.13,1.29,-2.3,-1.69
1194,3939.0,-3.54,-3.71,7.02,1.35,-2.36,-1.72
1195,3943.0,-4.25,-2.99,7.41,1.38,-2.41,-1.72
1196,3946.0,-6.75,0.12,7.31,1.53,-2.43,-1.72
1197,3949.0,-8.77,4.23,7.18,2.39,-2.14,-1.6
1198,3952.0,-6.9,3.29,9.97,2.95,-1.86,-1.33
1199,3956.0,-4.55,1.24,13.66,3.03,-2.05,-1.01
1200,3959.0,-2.75,-0.83,15.1,2.71,-2.71,-0.75
1201,3962.0,-1.4,-3.63,13.04,2.08,-3.68,-0.6
1202,3965.0,-0.34,-4.59,10.75,1.77,-4.28,-0.68
1203,3969.0,-0.22,-4.83,8.48,1.6,-4.7,-0.79
1204,3972.0,-0.06,-4.4,6.24,1.58,-4.87,-0.89
1205,3975.0,5.54,-6.06,10.93,2.17,-5.69,-1.02
1206,3978.0,6.62,-7.55,14.35,2.81,-7.81,-1.14
1207,3982.0,3.2,-8.16,10.96,2.01,-8.73,-1.28
1208,3985.0,-0.32,-7.6,6.88,0.85,-8.73,-1.54
1209,3988.0,-1.53,-4.83,4.13,0.7,-8.73,-1.99
1210,3991.0,-1.32,-3.27,2.94,1.0,-8.73,-2.18
1211,3995.0,-1.15,-2.79,2.11,1.27,-8.73,-2.29
1212,3998.0,-0.84,-2.75,2.6,1.62,-8.73,-2.42
1213,4001.0,-0.04,-2.14,4.85,1.95,-8.73,-2.48
1214,4005.0,0.6,-1.7,6.29,2.01,-8.59,-2.37
1215,4008.0,1.15,-1.77,6.88,1.96,-8.5,-2.22
1216,4011.0,1.6,-2.02,6.91,1.83,-8.45,-2.09
1217,4014.0,1.97,-2.07,6.64,1.63,-8.31,-1.97
1218,4018.0,2.29,-2.02,6.52,1.6,-8.22,-1.92
1219,4021.0,2.83,-2.04,6.44,1.59,-8.16,-1.88
1220,4024.0,3.91,-2.31,6.27,1.63,-8.14,-1.84
1221,4027.0,5.21,-2.43,6.48,2.0,-8.15,-1.85
1222,4030.0,4.85,-1.67,7.05,2.16,-8.17,-1.84
1223,4034.0,3.91,-1.35,6.9,1.89,-8.14,-1.73
1224,4037.0,2.78,-1.32,5.83,1.55,-8.01,-1.64
1225,4040.0,1.94,-1.04,4.32,1.43,-7.61,-1.62
1226,4043.0,1.89,-0.62,4.01,1.48,-7.26,-1.61
1227,4047.0,2.28,-0.2,4.3,1.49,-6.98,-1.57
1228,4050.0,2.78,0.1,4.66,1.44,-6.8,-1.5
1229,4053.0,3.48,0.39,4.94,1.32,-6.71,-1.38
1230,4056.0,3.81,0.56,4.9,1.25,-6.71,-1.29
1231,4060.0,4.08,0.67,4.55,1.18,-6.73,-1.22
1232,4063.0,4.26,0.74,3.97,1.12,-6.72,-1.17
1233,4066.0,4.39,0.84,3.27,1.05,-6.65,-1.17
1234,4069.0,4.62,1.07,2.42,0.93,-6.47,-1.19
1235,4073.0,4.83,1.24,1.97,0.83,-6.29,-1.22
1236,4076.0,5.07,1.34,1.7,0.73,-6.08,-1.25
1237,4079.0,5.27,1.38,1.55,0.65,-5.88,-1.27
1238,4082.0,5.59,1.42,1.53,0.56,-5.64,-1.3
1239,4086.0,5.79,1.39,1.57,0.51,-5.49,-1.31
1240,4089.0,5.96,1.29,1.59,0.47,-5.36,-1.31
1241,4092.0,6.14,1.14,1.58,0.44,-5.26,-1.32
1242,4095.0,6.54,0.93,1.52,0.41,-5.13,-1.34
1243,4098.0,7.02,0.87,1.49,0.39,-5.07,-1.37
1244,4102.0,7.56,0.88,1.63,0.37,-5.05,-1.4
1245,4105.0,8.09,0.87,1.85,0.37,-5.08,-1.43
1246,4108.0,8.46,0.73,2.05,0.34,-5.17,-1.45
1247,4111.0,8.65,0.4,2.24,0.29,-5.31,-1.49
1248,4115.0,8.65,0.07,2.25,0.25,-5.41,-1.53
1249,4118.0,8.63,-0.2,2.09,0.22,-5.47,-1.59
1250,4121.0,8.64,-0.4,1.87,0.21,-5.47,-1.65
1251,4124.0,8.68,-0.57,1.64,0.24,-5.4,-1.75
1252,4128.0,8.66,-0.59,1.63,0.27,-5.31,-1.82
1253,4131.0,8.52,-0.63,1.87,0.32,-5.23,-1.88
1254,4134.0,8.41,-0.6,2.13,0.4,-5.2,-1.93
1255,4137.0,8.18,-0.52,2.28,0.49,-5.23,-1.96
1256,4141.0,7.99,-0.39,2.13,0.55,-5.27,-1.96
1257,4144.0,7.75,-0.2,1.69,0.61,-5.31,-1.96
1258,4147.0,7.52,0.13,1.0,0.65,-5.31,-1.94
1259,4150.0,7.38,0.55,0.25,0.7,-5.26,-1.92
1260,4153.0,7.31,1.11,-0.63,0.76,-5.12,-1.86
1261,4157.0,7.44,1.52,-1.08,0.81,-4.99,-1.78
1262,4160.0,7.66,1.83,-1.41,0.85,-4.87,-1.69
1263,4163.0,7.95,2.02,-1.65,0.88,-4.77,-1.58
1264,4166.0,8.34,2.13,-1.86,0.91,-4.66,-1.43
1265,4170.0,8.87,2.07,-1.73,0.91,-4.61,-1.33
1266,4173.0,9.34,1.55,-1.94,0.78,-4.67,-1.27
1267,4176.0,9.33,1.37,-3.06,0.49,-4.55,-1.3
1268,4179.0,9.27,1.72,-3.21,0.51,-4.35,-1.34
1269,4183.0,8.98,1.81,-2.87,0.36,-4.23,-1.34
1270,4186.0,8.67,1.85,-2.57,0.25,-4.16,-1.31
1271,4199.0,7.81,1.41,-2.24,0.16,-4.03,-1.32
1272,4203.0,7.8,1.36,-2.13,0.15,-4.03,-1.36
1273,4206.0,7.91,1.37,-1.88,0.17,-4.07,-1.39
1274,4209.0,8.04,1.37,-1.47,0.21,-4.18,-1.42
1275,4212.0,8.17,1.35,-0.92,0.27,-4.48,-1.46
1276,4216.0,8.22,1.21,-0.66,0.3,-4.77,-1.48
1277,4219.0,8.35,0.92,-0.62,0.31,-5.09,-1.51
1278,4222.0,8.49,0.55,-0.83,0.31,-5.4,-1.57
1279,4225.0,8.64,-0.02,-1.34,0.3,-5.74,-1.71
1280,4229.0,8.83,-0.35,-1.85,0.29,-5.92,-1.88
1281,4232.0,8.97,-0.6,-2.44,0.28,-6.02,-2.09
1282,4235.0,9.05,-0.74,-3.11,0.25,-6.03,-2.34
1283,4238.0,9.13,-0.76,-3.94,0.26,-5.95,-2.72
1284,4242.0,9.23,-0.56,-4.43,0.3,-5.84,-3.03
1285,4245.0,9.42,0.22,-4.62,0.39,-5.72,-3.3
1286,4248.0,9.66,1.19,-4.52,0.5,-5.64,-3.49
1287,4251.0,9.77,2.17,-4.55,0.54,-5.61,-3.6
1288,4255.0,9.63,2.68,-4.82,0.58,-5.6,-3.6
1289,4258.0,9.46,3.01,-5.15,0.64,-5.58,-3.57
1290,4261.0,9.23,3.2,-5.53,0.7,-5.53,-3.53
1291,4264.0,8.88,3.41,-5.97,0.74,-5.41,-3.45
1292,4268.0,8.56,3.63,-6.28,0.74,-5.28,-3.39
1293,4271.0,7.81,4.3,-7.1,0.7,-5.12,-3.31
1294,4274.0,7.13,5.52,-8.57,0.55,-4.85,-3.17
1295,4277.0,6.94,7.03,-10.13,0.45,-4.29,-2.86
1296,4281.0,7.33,7.66,-9.92,0.45,-3.85,-2.54
1297,4284.0,7.9,7.61,-8.72,0.45,-3.54,-2.19
1298,4287.0,8.31,7.03,-7.54,0.39,-3.4,-1.88
1299,4290.0,8.44,6.38,-6.95,0.29,-3.35,-1.64
1300,4294.0,8.29,5.86,-6.94,0.17,-3.31,-1.42
1301,4297.0,8.03,5.83,-7.28,0.08,-3.24,-1.29
1302,4300.0,7.81,6.05,-7.8,-0.02,-3.13,-1.17
1303,4303.0,7.69,6.27,-8.47,-0.11,-2.96,-1.04
1304,4307.0,7.76,6.41,-9.28,-0.17,-2.69,-0.87
1305,4310.0,7.98,6.57,-9.66,-0.2,-2.47,-0.74
1306,4313.0,8.28,6.69,-9.86,-0.25,-2.23,-0.59
1307,4316.0,8.85,6.87,-10.02,-0.35,-1.94,-0.38
1308,4320.0,9.15,6.93,-10.2,-0.39,-1.74,-0.22
1309,4323.0,9.29,6.75,-10.33,-0.4,-1.53,-0.07
1310,4326.0,9.41,6.38,-10.26,-0.4,-1.31,0.04
1311,4330.0,9.61,5.84,-9.87,-0.41,-1.02,0.12
1312,4333.0,9.72,5.37,-9.46,-0.43,-0.83,0.16
1313,4336.0,9.8,4.9,-9.11,-0.47,-0.66,0.18
1314,4339.0,9.83,4.61,-9.01,-0.55,-0.5,0.17
1315,4342.0,9.84,4.56,-9.24,-0.65,-0.31,0.16
1316,4346.0,9.81,4.65,-9.67,-0.78,0.01,0.16
1317,4349.0,9.77,4.77,-9.85,-0.86,0.28,0.15
1318,4352.0,9.76,4.91,-9.83,-0.92,0.57,0.15
1319,4355.0,9.73,4.98,-9.67,-0.97,0.86,0.15
1320,4359.0,9.69,4.99,-9.4,-1.07,1.23,0.15
1321,4362.0,9.61,4.81,-9.11,-1.16,1.51,0.14
1322,4365.0,9.48,4.57,-8.7,-1.27,1.76,0.13
1323,4368.0,9.33,4.3,-8.44,-1.39,1.98,0.12
1324,4372.0,9.18,4.01,-8.31,-1.55,2.24,0.09
1325,4375.0,9.17,3.96,-8.24,-1.67,2.41,0.07
1326,4378.0,9.16,3.97,-8.24,-1.77,2.55,0.06
1327,4381.0,9.08,4.02,-8.29,-1.84,2.67,0.05
1328,4384.0,8.94,4.1,-8.29,-1.89,2.79,0.05
1329,4388.0,8.76,4.29,-8.28,-1.96,2.96,0.07
1330,4391.0,8.69,4.41,-8.28,-2.05,3.12,0.09
1331,4394.0,8.6,4.58,-8.23,-2.15,3.29,0.13
1332,4397.0,8.55,4.7,-8.08,-2.22,3.49,0.19
1333,4401.0,8.57,4.75,-7.58,-2.28,3.74,0.26
1334,4404.0,8.64,4.7,-7.17,-2.33,3.9,0.32
1335,4407.0,8.61,4.57,-6.62,-2.37,4.04,0.38
1336,4410.0,8.63,4.4,-5.89,-2.37,4.13,0.43
1337,4414.0,8.6,4.16,-5.3,-2.36,4.15,0.48
1338,4417.0,8.6,3.93,-4.7,-2.35,4.14,0.53
1339,4420.0,8.66,3.87,-4.34,-2.36,4.11,0.58
1340,4423.0,8.69,3.91,-4.24,-2.4,4.08,0.64
1341,4426.0,8.77,4.01,-4.27,-2.43,4.05,0.7
1342,4430.0,8.88,4.23,-4.53,-2.51,4.08,0.81
1343,4433.0,8.94,4.32,-4.62,-2.59,4.16,0.91
1344,4436.0,8.89,4.27,-4.66,-2.66,4.26,1.01
1345,4439.0,8.77,4.1,-4.62,-2.75,4.39,1.07
1346,4443.0,8.49,4.16,-4.75,-2.85,4.63,1.15
1347,4446.0,8.0,3.91,-4.59,-2.95,4.88,1.21
1348,4449.0,7.9,3.8,-4.26,-2.97,5.1,1.25
1349,4452.0,7.9,3.94,-4.21,-2.96,5.3,1.36
1350,4456.0,7.22,3.95,-4.6,-3.04,5.63,1.54
1351,4459.0,7.0,3.45,-4.46,-3.41,6.51,1.87
1352,4462.0,7.68,2.97,-3.48,-3.44,6.96,1.99
1353,4465.0,8.53,2.67,-2.05,-3.41,7.22,2.06
1354,4468.0,9.41,2.33,-0.63,-3.3,7.17,2.09
1355,4472.0,10.16,2.26,0.33,-3.13,6.82,2.11
1356,4475.0,10.46,2.24,0.72,-3.07,6.54,2.16
1357,4478.0,10.65,2.17,1.0,-2.99,6.21,2.2
1358,4481.0,10.63,2.07,1.17,-2.87,5.85,2.23
1359,4485.0,10.81,2.1,1.39,-2.72,5.45,2.24
1360,4488.0,10.84,2.43,1.56,-2.25,4.62,2.33
1361,4491.0,10.18,2.43,0.61,-2.05,4.17,2.34
1362,4494.0,9.56,2.77,0.01,-1.93,3.92,2.33
1363,4497.0,9.0,2.88,-0.38,-1.84,3.77,2.38
1364,4501.0,8.41,2.68,-0.73,-1.76,3.69,2.42
1365,4504.0,7.78,2.48,-0.84,-1.67,3.71,2.43
1366,4507.0,7.42,2.32,-0.7,-1.61,3.75,2.45
1367,4510.0,7.13,2.03,-0.47,-1.58,3.82,2.49
1368,4514.0,6.94,1.72,-0.16,-1.54,3.89,2.51
1369,4517.0,6.81,1.39,0.24,-1.49,3.96,2.53
1370,4520.0,6.87,1.19,0.42,-1.45,4.03,2.53
1371,4523.0,7.0,1.01,0.47,-1.4,4.1,2.5
1372,4526.0,7.24,1.02,0.37,-1.33,4.18,2.45
1373,4530.0,7.63,1.11,0.08,-1.24,4.3,2.39
1374,4533.0,10.83,0.31,-3.25,-1.05,4.63,2.23
1375,4536.0,8.71,0.86,-6.11,-0.64,5.13,2.1
1376,4539.0,5.7,1.78,-3.76,0.53,5.63,1.92
1377,4543.0,5.07,2.57,-0.63,0.96,5.95,1.88
1378,4546.0,5.87,2.59,2.11,1.01,6.27,2.03
1379,4549.0,7.81,1.85,4.64,0.09,6.25,2.4
1380,4552.0,8.95,-0.04,2.53,-0.08,6.06,2.49
1381,4555.0,8.23,-0.26,2.28,0.18,5.87,2.29
1382,4559.0,6.79,0.41,3.14,0.48,5.67,2.04
1383,4562.0,6.39,0.48,4.35,0.41,5.54,1.89
1384,4565.0,7.26,-0.14,5.85,-0.37,5.42,1.72
1385,4568.0,8.47,-0.77,6.04,-0.77,5.16,1.54
1386,4571.0,9.42,-1.07,5.9,-0.94,4.81,1.31
1387,4575.0,9.46,-0.48,5.47,-0.83,4.38,1.11
1388,4578.0,7.63,0.79,5.42,-0.37,3.91,0.94
1389,4581.0,6.52,1.2,5.56,-0.55,3.81,0.99
1390,4584.0,6.4,1.1,5.98,-0.83,3.79,1.1
1391,4588.0,6.94,0.91,6.53,-1.08,3.73,1.19
1392,4591.0,7.28,0.68,6.39,-1.3,3.66,1.26
1393,4594.0,7.56,0.36,6.31,-1.54,3.61,1.26
1394,4597.0,7.64,0.22,6.41,-1.62,3.5,1.24
1395,4600.0,7.62,0.03,6.34,-1.67,3.35,1.18
1396,4604.0,7.52,-0.1,6.35,-1.68,3.2,1.11
1397,4607.0,7.45,-0.22,6.48,-1.67,3.03,1.01
1398,4610.0,7.25,-0.22,6.44,-1.66,2.81,0.91
1399,4613.0,7.06,-0.09,6.31,-1.64,2.68,0.9
1400,4616.0,6.89,0.03,6.11,-1.59,2.56,0.91
1401,4620.0,6.61,0.05,5.87,-1.5,2.47,0.94
1402,4623.0,6.23,-0.03,5.52,-1.4,2.43,0.98
1403,4626.0,6.01,-0.05,5.27,-1.27,2.45,1.01
1404,4629.0,5.84,-0.02,4.88,-1.09,2.49,1.04
1405,4633.0,5.46,-0.4,4.55,-0.95,2.63,1.06
1406,4636.0,5.09,-0.79,4.45,-1.07,2.87,1.09
1407,4639.0,6.72,-1.62,4.23,-1.14,3.18,1.07
1408,4642.0,8.84,-1.95,2.46,-0.79,3.37,0.93
1409,4646.0,7.13,-1.0,2.24,-0.12,3.64,0.8
1410,4649.0,6.06,-0.22,2.48,0.32,3.9,0.81
1411,4652.0,1.91,-0.89,4.59,1.4,4.27,0.66
1412,4655.0,1.74,-1.6,6.98,0.91,4.56,0.7
1413,4658.0,2.59,-2.38,9.55,0.55,4.59,0.66
1414,4662.0,4.07,-2.0,10.68,0.41,4.28,0.6
1415,4665.0,4.82,-1.19,10.49,0.69,3.84,0.54
1416,4668.0,6.93,0.7,8.82,1.07,3.42,0.5
1417,4671.0,7.73,2.8,6.68,1.97,3.17,0.52
1418,4674.0,7.45,3.91,4.94,3.1,3.13,0.59
1419,4678.0,7.12,4.36,3.2,4.19,3.31,0.74
1420,4681.0,6.46,3.83,2.41,5.29,3.65,0.83
1421,4684.0,5.45,2.26,3.83,5.86,4.23,0.97
1422,4687.0,4.88,1.0,5.71,5.9,4.51,1.01
1423,4690.0,4.08,-0.76,8.29,5.78,4.6,0.96
1424,4694.0,4.05,-2.02,10.94,5.09,4.27,0.78
1425,4697.0,4.15,-2.71,12.94,4.03,3.77,0.63
1426,4700.0,4.2,-2.66,13.75,2.68,2.88,0.39
1427,4703.0,4.28,-1.76,12.77,1.77,2.2,0.25
1428,4706.0,4.4,-0.5,11.0,1.02,1.62,0.18
1429,4710.0,4.49,0.63,9.01,0.54,1.19,0.17
1430,4713.0,4.37,1.26,7.17,0.33,0.9,0.19
1431,4716.0,3.85,1.28,5.36,0.27,0.72,0.21
1432,4719.0,3.41,0.98,4.55,0.27,0.71,0.22
1433,4722.0,2.96,0.62,4.11,0.27,0.76,0.2
1434,4726.0,2.63,0.51,3.91,0.24,0.86,0.18
1435,4729.0,2.21,0.47,3.92,0.18,0.98,0.17
1436,4732.0,1.93,0.51,4.12,0.05,1.15,0.18
1437,4735.0,1.81,0.59,4.33,-0.08,1.28,0.2
1438,4738.0,1.75,0.7,4.48,-0.2,1.4,0.23
1439,4742.0,1.68,0.76,4.59,-0.3,1.52,0.27
1440,4745.0,1.65,0.74,4.62,-0.37,1.64,0.31
1441,4748.0,1.61,0.61,4.7,-0.42,1.82,0.35
1442,4751.0,1.64,0.51,4.82,-0.43,1.95,0.38
1443,4755.0,1.71,0.42,4.99,-0.44,2.08,0.39
1444,4758.0,1.84,0.38,5.15,-0.47,2.21,0.39
1445,4761.0,2.03,0.39,5.33,-0.53,2.33,0.4
1446,4764.0,2.27,0.52,5.58,-0.63,2.47,0.4
1447,4767.0,2.47,0.71,5.76,-0.72,2.54,0.42
1448,4771.0,2.62,0.91,5.93,-0.79,2.58,0.44
1449,4774.0,2.66,1.01,6.1,-0.84,2.59,0.47
1450,4777.0,2.75,1.06,6.33,-0.91,2.57,0.5
1451,4780.0,2.75,0.94,6.72,-1.01,2.49,0.55
1452,4783.0,2.61,0.59,7.05,-1.1,2.4,0.57
1453,4787.0,2.4,0.13,7.27,-1.23,2.29,0.57
1454,4790.0,2.29,-0.15,7.37,-1.41,2.17,0.55
1455,4793.0,2.14,-0.18,7.28,-1.65,2.03,0.52
1456,4796.0,2.01,-0.11,7.12,-1.83,1.95,0.5
1457,4800.0,1.85,-0.11,6.99,-2.02,1.91,0.5
1458,4803.0,1.66,-0.17,6.97,-2.21,1.88,0.5
1459,4806.0,1.43,-0.28,6.97,-2.39,1.89,0.51
1460,4809.0,1.11,-0.36,6.89,-2.54,1.92,0.51
1461,4812.0,0.99,-0.35,6.7,-2.56,1.97,0.52
1462,4816.0,0.89,-0.3,6.45,-2.47,2.05,0.53
1463,4819.0,0.81,-0.23,6.16,-2.29,2.16,0.55
1464,4822.0,0.68,-0.31,5.83,-1.94,2.36,0.58
1465,4825.0,0.6,-0.43,5.69,-1.65,2.54,0.6
1466,4829.0,0.47,-0.63,5.76,-1.36,2.75,0.61
1467,4832.0,0.39,-0.87,5.96,-1.1,2.95,0.61
1468,4835.0,0.35,-1.04,6.28,-0.88,3.14,0.6
1469,4838.0,0.47,-0.98,6.81,-0.61,3.35,0.57
1470,4842.0,1.19,-0.79,7.06,-0.41,3.46,0.54
1471,4845.0,1.08,0.15,7.28,-0.14,3.49,0.46
1472,4848.0,0.94,1.63,7.18,0.19,3.51,0.5
1473,4851.0,1.08,3.04,7.12,0.88,3.5,0.64
1474,4854.0,1.14,3.52,7.19,1.48,3.5,0.78
1475,4858.0,1.19,3.26,7.57,2.03,3.49,0.93
1476,4861.0,1.51,2.9,8.12,2.49,3.42,1.04
1477,4864.0,1.77,2.78,8.4,2.96,3.26,1.1
1478,4867.0,1.17,1.85,8.65,3.43,3.05,1.17
1479,4870.0,1.05,0.99,8.76,3.59,2.9,1.17
1480,4874.0,0.93,0.43,8.57,3.78,2.73,1.09
1481,4877.0,0.79,0.13,8.29,3.84,2.62,1.01
1482,4880.0,0.67,-0.07,8.36,3.75,2.52,0.92
1483,4883.0,0.44,-0.13,8.29,3.69,2.4,0.83
1484,4886.0,0.53,-0.31,8.24,3.47,2.29,0.7
1485,4890.0,0.69,-0.26,8.44,3.28,2.21,0.6
1486,4893.0,0.69,-0.11,8.62,3.07,2.12,0.51
1487,4896.0,0.49,0.1,8.76,2.83,2.03,0.45
1488,4899.0,0.49,0.33,8.78,2.61,1.94,0.41
1489,4902.0,0.07,0.7,8.71,2.37,1.84,0.38
1490,4906.0,0.3,1.01,8.46,2.25,1.78,0.37
1491,4909.0,-0.06,1.32,8.37,2.16,1.73,0.38
1492,4912.0,-0.43,1.6,8.08,2.11,1.69,0.43
1493,4915.0,-0.73,1.83,7.8,2.07,1.69,0.49
1494,4918.0,-0.89,1.98,7.43,2.08,1.73,0.54
1495,4922.0,-1.31,2.08,7.41,2.07,1.8,0.58
1496,4925.0,-1.6,2.19,7.39,2.04,1.87,0.62
1497,4928.0,-1.63,2.21,7.41,1.97,1.96,0.65
1498,4931.0,-1.32,2.2,7.72,1.8,2.07,0.67
1499,4934.0,-0.86,2.21,8.0,1.64,2.11,0.68
1500,4938.0,-0.19,2.19,8.32,1.47,2.1,0.69
1501,4941.0,0.33,2.07,8.64,1.31,2.01,0.69
1502,4944.0,0.65,1.87,8.78,1.17,1.88,0.68
1503,4947.0,1.58,1.5,8.74,1.0,1.66,0.63
1504,4951.0,1.32,1.38,8.82,0.9,1.46,0.58
1505,4954.0,0.65,1.23,8.7,0.79,1.28,0.52
1506,4957.0,0.09,1.16,8.6,0.61,1.15,0.45
1507,4960.0,-0.42,1.33,8.59,0.45,1.06,0.38
1508,4963.0,-0.82,1.84,8.53,0.27,0.95,0.31
1509,4967.0,-0.86,2.26,8.39,0.2,0.88,0.28
1510,4970.0,-0.79,2.66,8.2,0.18,0.81,0.28
1511,4973.0,-0.65,3.0,8.03,0.22,0.75,0.3
1512,4976.0,-0.48,3.21,7.88,0.32,0.68,0.33
1513,4979.0,-0.29,3.22,7.65,0.45,0.57,0.4
1514,4983.0,-0.29,3.01,7.41,0.52,0.47,0.45
1515,4986.0,-0.47,2.63,7.07,0.54,0.39,0.5
1516,4989.0,-0.88,2.18,6.6,0.54,0.34,0.53
1517,4992.0,-1.38,1.72,6.06,0.51,0.34,0.54
1518,4995.0,-1.89,1.24,5.34,0.44,0.43,0.53
1519,4999.0,-2.06,1.02,4.85,0.4,0.57,0.5
1520,5002.0,-2.06,0.93,4.46,0.38,0.76,0.46
1521,5005.0,-1.99,0.87,4.24,0.37,0.98,0.41
1522,5008.0,-1.84,0.86,4.21,0.38,1.21,0.35
1523,5012.0,-1.62,0.9,4.42,0.41,1.52,0.26
1524,5015.0,-1.42,0.98,4.77,0.42,1.72,0.2
1525,5018.0,-1.23,1.06,5.28,0.41,1.88,0.13
1526,5021.0,-1.05,1.19,5.88,0.4,1.97,0.07
1527,5024.0,-0.79,1.57,6.59,0.37,1.99,0.0
1528,5028.0,-0.5,2.14,7.18,0.24,1.96,0.08
1529,5031.0,-0.73,2.47,7.5,0.29,1.81,0.09
1530,5034.0,-0.98,2.51,7.59,0.3,1.67,0.11
1531,5037.0,-1.1,2.5,7.86,0.26,1.52,0.15
1532,5040.0,-1.51,2.41,7.87,0.38,1.24,0.17
1533,5044.0,-1.56,2.25,7.8,0.41,1.06,0.2
1534,5047.0,-1.54,2.24,7.79,0.45,0.86,0.23
1535,5050.0,-1.63,2.21,7.6,0.51,0.64,0.26
1536,5053.0,-1.67,2.03,7.37,0.54,0.46,0.28
1537,5057.0,-1.55,1.87,6.99,0.57,0.25,0.29
1538,5060.0,-1.34,1.85,6.66,0.55,0.13,0.32
1539,5063.0,-1.33,1.8,6.36,0.49,0.04,0.36
1540,5066.0,-1.49,1.61,5.98,0.45,-0.04,0.37
1541,5069.0,-1.56,1.33,5.53,0.41,-0.09,0.35
1542,5073.0,-1.55,1.11,5.0,0.33,-0.08,0.31
1543,5076.0,-1.24,2.28,5.47,0.12,0.05,0.28
1544,5079.0,-0.8,3.66,6.97,-0.14,0.06,0.34
1545,5082.0,-0.6,4.64,7.96,-0.09,-0.11,0.45
1546,5086.0,-0.84,4.92,8.27,-0.02,-0.37,0.66
1547,5089.0,-1.06,4.36,8.14,0.06,-0.54,0.79
1548,5092.0,-1.29,3.65,7.96,0.08,-0.67,0.89
1549,5095.0,-1.46,3.02,7.65,0.08,-0.79,0.94
1550,5098.0,-1.62,2.44,6.9,0.04,-0.9,0.96
1551,5102.0,-1.61,2.29,6.24,0.02,-0.92,0.96
1552,5105.0,-1.71,2.61,5.77,0.0,-0.88,0.97
1553,5108.0,-1.8,2.93,5.64,0.03,-0.81,1.01
1554,5111.0,-1.8,3.09,5.81,0.12,-0.76,1.08
1555,5115.0,-1.87,3.27,6.24,0.32,-0.72,1.2
1556,5118.0,-1.94,3.38,6.69,0.49,-0.73,1.29
1557,5121.0,-1.92,3.41,7.23,0.67,-0.77,1.38
1558,5124.0,-1.74,3.46,7.71,0.89,-0.86,1.46
1559,5128.0,-1.61,3.62,8.14,1.21,-1.02,1.58
1560,5131.0,-1.49,3.77,8.3,1.42,-1.15,1.68
1561,5134.0,-0.96,3.81,8.32,1.62,-1.26,1.77
1562,5137.0,0.85,3.54,8.11,1.98,-1.28,1.79
1563,5140.0,0.64,4.38,8.49,2.65,-1.39,1.8
1564,5144.0,-0.35,5.19,8.6,3.07,-1.58,2.0
1565,5147.0,-0.78,4.71,8.27,3.32,-1.72,2.14
1566,5150.0,-1.12,4.13,7.82,3.6,-1.79,2.22
1567,5153.0,-1.58,3.99,7.83,3.83,-1.82,2.28
1568,5157.0,-1.8,3.9,8.66,4.0,-1.9,2.36
1569,5160.0,-1.79,3.87,9.56,4.09,-2.03,2.41
1570,5163.0,-1.75,4.11,10.47,4.14,-2.24,2.47
1571,5166.0,-1.64,4.47,11.15,4.08,-2.52,2.55
1572,5170.0,-1.39,4.82,11.48,3.94,-2.84,2.66
1573,5173.0,-1.04,4.99,11.31,3.74,-3.29,2.83
1574,5176.0,-0.82,5.14,10.81,3.78,-3.59,2.94
1575,5179.0,-0.73,5.82,9.93,3.77,-3.87,3.08
1576,5182.0,-0.68,5.89,9.09,3.51,-4.01,3.3
1577,5186.0,-0.58,6.47,8.31,3.46,-4.08,3.54
1578,5189.0,-0.51,6.6,7.78,3.17,-4.07,3.81
1579,5192.0,-0.42,6.45,7.51,3.06,-4.03,4.04
1580,5195.0,-0.32,6.77,7.12,3.05,-4.0,4.28
1581,5199.0,-0.31,6.85,6.45,2.3,-3.89,4.68
1582,5202.0,-0.42,6.36,6.18,1.32,-3.73,4.97
1583,5205.0,-0.44,5.23,6.23,0.23,-3.59,5.14
1584,5208.0,-0.54,3.84,6.39,-0.89,-3.49,5.15
1585,5212.0,-0.66,2.72,6.62,-2.0,-3.44,5.01
1586,5215.0,-0.77,1.83,6.63,-3.34,-3.46,4.66
1587,5218.0,-0.82,1.57,6.63,-4.2,-3.46,4.33
1588,5221.0,-0.82,1.55,6.65,-4.99,-3.48,3.99
1589,5225.0,-0.8,1.78,6.5,-5.65,-3.53,3.66
1590,5228.0,-0.55,2.43,5.94,-6.28,-3.59,3.3
1591,5231.0,-0.31,2.91,5.46,-6.66,-3.6,3.11
1592,5234.0,-0.01,3.19,5.02,-7.01,-3.56,2.99
1593,5238.0,0.29,3.18,4.64,-7.29,-3.5,2.9
1594,5241.0,0.74,2.55,4.17,-7.37,-3.47,2.78
1595,5244.0,1.07,2.5,3.9,-7.12,-3.35,2.61
1596,5247.0,1.33,2.37,3.69,-6.82,-3.23,2.45
1597,5250.0,1.56,1.85,3.55,-6.53,-3.06,2.28
1598,5254.0,1.86,1.36,3.28,-5.99,-2.79,1.98
1599,5257.0,2.05,1.32,3.29,-5.51,-2.53,1.75
1600,5260.0,2.2,1.35,3.59,-5.08,-2.27,1.55
1601,5263.0,2.38,1.41,4.16,-4.71,-2.02,1.4
1602,5267.0,2.59,1.48,4.99,-4.39,-1.83,1.31
1603,5270.0,2.83,1.6,6.14,-4.0,-1.7,1.24
1604,5273.0,2.95,1.7,6.93,-3.74,-1.68,1.24
1605,5276.0,3.07,1.83,7.46,-3.49,-1.74,1.29
1606,5280.0,3.21,2.0,7.71,-3.28,-1.84,1.37
1607,5283.0,3.32,2.25,7.63,-3.04,-2.02,1.56
1608,5286.0,3.34,2.38,7.35,-2.87,-2.15,1.73
1609,5289.0,3.26,2.37,6.9,-2.65,-2.27,1.92
1610,5292.0,3.17,2.25,6.22,-2.34,-2.35,2.08
1611,5296.0,3.08,2.09,5.4,-1.95,-2.38,2.2
1612,5299.0,3.03,1.76,4.26,-1.34,-2.32,2.3
1613,5302.0,3.07,1.43,3.47,-0.86,-2.19,2.33
1614,5305.0,3.27,1.03,2.81,-0.36,-2.0,2.31
1615,5309.0,3.62,0.63,2.37,0.16,-1.77,2.25
1616,5312.0,4.17,0.25,2.06,0.89,-1.44,2.1
1617,5315.0,4.63,0.13,1.98,1.44,-1.19,1.97
1618,5318.0,5.06,0.07,1.92,1.97,-0.95,1.83
1619,5321.0,5.44,0.12,1.92,2.5,-0.72,1.69
1620,5325.0,5.64,0.28,1.97,3.04,-0.5,1.55
1621,5328.0,5.65,0.67,2.22,3.69,-0.23,1.42
1622,5331.0,5.46,1.08,2.5,4.11,-0.05,1.37
1623,5334.0,5.17,1.47,2.86,4.45,0.12,1.36
1624,5338.0,4.92,1.7,3.27,4.76,0.26,1.39
1625,5341.0,4.68,1.8,3.6,5.09,0.37,1.42
1626,5344.0,4.48,1.84,3.97,5.57,0.5,1.45
1627,5347.0,4.21,1.67,4.19,5.96,0.59,1.45
1628,5350.0,3.88,1.06,4.8,6.34,0.73,1.41
1629,5354.0,3.77,0.17,6.53,6.42,0.93,1.36
1630,5357.0,3.82,-0.72,9.41,5.83,1.06,1.32
1631,5360.0,3.55,-1.29,13.21,4.24,0.87,1.24
1632,5363.0,3.22,-1.11,14.71,3.02,0.48,1.11
1633,5366.0,3.08,-0.57,14.94,2.05,0.0,0.96
1634,5370.0,3.16,0.07,14.14,1.33,-0.48,0.8
1635,5373.0,3.46,0.66,12.56,0.83,-0.93,0.67
1636,5376.0,3.81,1.32,9.33,0.47,-1.37,0.53
1637,5379.0,3.9,1.86,6.35,0.47,-1.52,0.46
1638,5382.0,3.8,2.5,3.36,0.8,-1.47,0.4
1639,5386.0,3.6,3.12,0.86,1.47,-1.23,0.36
1640,5389.0,3.43,3.59,-1.07,2.81,-0.72,0.31
1641,5392.0,3.35,3.68,-1.43,4.05,-0.27,0.27
1642,5395.0,3.36,3.66,-1.11,5.4,0.16,0.2
1643,5399.0,3.36,3.61,-0.39,6.82,0.56,0.1
1644,5402.0,3.39,3.72,0.48,8.26,0.9,-0.02
1645,5405.0,3.41,3.96,1.57,8.73,1.28,-0.19
1646,5408.0,3.39,4.07,2.35,8.73,1.54,-0.33
1647,5411.0,3.39,4.15,3.15,8.73,1.74,-0.46
1648,5415.0,3.41,4.64,3.98,8.73,1.89,-0.56
1649,5418.0,3.47,4.88,4.42,8.73,1.98,-0.59
1650,5421.0,3.55,4.66,4.51,8.73,2.09,-0.68
1651,5424.0,3.84,4.91,3.39,8.73,2.16,-0.72
1652,5427.0,3.77,4.3,0.98,8.73,2.42,-0.62
1653,5431.0,3.55,3.34,-1.62,8.73,2.95,-0.49
1654,5434.0,3.68,2.67,-2.04,6.82,3.64,-0.49
1655,5437.0,4.34,3.67,0.51,5.13,4.23,-0.69
1656,5440.0,4.74,4.34,3.09,4.52,4.32,-0.79
1657,5444.0,4.99,4.71,5.17,4.2,4.15,-0.85
1658,5447.0,5.0,4.85,6.54,4.11,3.82,-0.91
1659,5450.0,4.94,5.19,6.84,4.26,3.21,-1.01
1660,5453.0,4.55,5.2,5.89,4.36,2.84,-1.06
1661,5456.0,4.12,4.94,4.59,4.61,2.6,-1.16
1662,5460.0,3.67,4.88,3.29,4.99,2.48,-1.32
1663,5463.0,3.25,5.06,2.33,5.49,2.47,-1.51
1664,5466.0,2.74,5.34,2.0,6.15,2.6,-1.77
1665,5469.0,2.26,5.09,2.89,6.39,2.82,-1.97
1666,5472.0,2.11,5.64,3.96,6.62,2.84,-2.17
1667,5476.0,2.05,6.3,5.01,6.86,2.71,-2.32
1668,5479.0,2.46,6.64,5.78,6.9,2.49,-2.43
1669,5482.0,3.0,7.37,6.11,6.78,2.14,-2.53
1670,5485.0,3.76,8.28,5.91,6.69,1.76,-2.56
1671,5489.0,3.48,9.43,5.0,6.85,1.3,-2.57
1672,5492.0,2.88,9.47,4.47,6.91,1.02,-2.53
1673,5495.0,2.73,9.39,4.46,6.8,0.82,-2.49
1674,5498.0,2.86,9.18,4.79,6.52,0.57,-2.46
1675,5501.0,2.97,9.0,4.83,6.27,0.34,-2.45
1676,5505.0,2.98,8.9,4.44,6.12,0.06,-2.47
1677,5508.0,2.9,8.58,3.85,5.98,-0.19,-2.51
1678,5511.0,2.92,8.41,3.25,5.74,-0.45,-2.62
1679,5514.0,2.96,8.63,3.08,5.55,-0.63,-2.69
1680,5517.0,2.99,8.94,3.04,5.36,-0.81,-2.75
1681,5521.0,3.01,9.29,2.96,5.14,-0.99,-2.78
1682,5524.0,3.0,9.65,2.8,4.84,-1.16,-2.77
1683,5527.0,2.82,10.01,2.52,4.4,-1.39,-2.71
1684,5530.0,2.56,10.3,1.92,4.15,-1.5,-2.63
1685,5534.0,2.28,10.32,1.3,3.98,-1.55,-2.54
1686,5537.0,1.99,10.07,0.87,3.81,-1.57,-2.47
1687,5540.0,1.72,9.68,0.55,3.61,-1.56,-2.41
1688,5543.0,1.53,9.33,0.34,3.5,-1.55,-2.41
1689,5547.0,1.41,8.98,0.12,3.39,-1.55,-2.44
1690,5550.0,1.4,8.7,-0.11,3.28,-1.53,-2.49
1691,5553.0,1.48,8.54,-0.09,3.09,-1.49,-2.59
1692,5556.0,1.51,8.6,0.15,2.86,-1.51,-2.66
1693,5560.0,1.63,9.16,0.53,2.83,-1.59,-2.73
1694,5563.0,1.7,9.93,0.32,2.81,-1.69,-2.72
1695,5566.0,1.64,10.49,-0.1,2.69,-1.72,-2.62
1696,5569.0,2.5,11.32,-0.46,2.5,-1.66,-2.39
1697,5572.0,2.86,11.92,0.19,2.26,-1.65,-2.07
1698,5576.0,2.36,11.89,0.06,2.13,-1.71,-1.79
1699,5579.0,1.79,11.85,-0.84,1.97,-1.7,-1.5
1700,5582.0,0.83,10.95,-2.1,1.8,-1.47,-1.19
1701,5585.0,0.35,10.43,-2.53,1.7,-1.17,-1.08
1702,5589.0,0.11,10.17,-2.39,1.57,-0.85,-1.04
1703,5592.0,0.09,10.18,-1.86,1.39,-0.58,-1.02
1704,5595.0,0.21,10.45,-1.12,0.98,-0.32,-1.0
1705,5598.0,0.4,10.55,-0.58,0.53,-0.22,-0.97
1706,5602.0,0.46,10.58,0.15,-0.04,-0.19,-0.94
1707,5605.0,0.28,10.76,1.11,-0.76,-0.25,-0.92
1708,5608.0,-0.07,11.08,2.39,-2.0,-0.47,-0.91
1709,5611.0,-0.24,11.25,3.15,-3.15,-0.72,-0.92
1710,5615.0,-0.39,11.38,3.75,-4.41,-1.03,-0.96
1711,5618.0,-0.55,11.48,4.17,-5.66,-1.36,-1.02
1712,5621.0,-0.58,11.49,4.3,-7.1,-1.8,-1.12
1713,5624.0,-0.51,11.36,3.97,-7.92,-2.09,-1.2
1714,5628.0,-0.32,11.16,3.44,-8.49,-2.32,-1.28
1715,5631.0,-0.1,11.01,3.0,-8.73,-2.47,-1.34
1716,5634.0,0.73,11.03,2.39,-8.73,-2.58,-1.37
1717,5638.0,3.1,12.01,1.53,-8.73,-2.63,-1.28
1718,5641.0,0.04,11.12,1.39,-8.47,-2.7,-1.11
1719,5644.0,-1.1,8.63,1.05,-8.27,-2.49,-1.04
1720,5647.0,-0.62,9.13,0.32,-8.18,-2.28,-1.04
1721,5651.0,-0.39,9.07,-0.06,-7.61,-2.21,-0.98
1722,5654.0,-0.54,8.68,-0.81,-6.92,-2.1,-0.94
1723,5657.0,-0.52,8.14,-0.48,-6.6,-1.72,-0.86
1724,5660.0,-0.59,7.95,0.48,-6.05,-1.34,-0.77
1725,5664.0,-0.5,7.15,1.75,-5.96,-1.01,-0.7
1726,5667.0,-0.52,6.84,3.06,-6.07,-0.83,-0.73
1727,5670.0,-0.68,6.97,3.89,-6.38,-0.68,-0.76
1728,5673.0,-0.88,6.86,5.4,-7.07,-0.58,-0.89
1729,5677.0,-0.87,7.39,6.46,-7.55,-0.64,-1.03
1730,5680.0,-0.28,7.31,7.59,-7.93,-0.88,-1.13
1731,5683.0,0.15,6.96,8.08,-8.54,-1.22,-1.23
1732,5686.0,0.43,7.32,8.41,-8.73,-1.67,-1.38
1733,5690.0,0.54,7.14,8.62,-8.73,-2.01,-1.47
1734,5693.0,0.56,7.02,8.57,-8.73,-2.33,-1.56
1735,5696.0,0.42,7.01,8.29,-8.73,-2.6,-1.63
1736,5699.0,0.03,6.86,7.71,-8.73,-2.9,-1.68
1737,5703.0,-0.27,6.69,7.37,-8.73,-3.04,-1.69
1738,5706.0,0.12,6.96,7.97,-8.73,-3.19,-1.66
1739,5709.0,0.54,7.24,9.13,-8.73,-3.54,-1.52
1740,5712.0,0.79,7.29,10.2,-8.73,-4.22,-1.23
1741,5716.0,0.8,7.26,10.53,-8.73,-4.81,-0.96
1742,5719.0,0.65,6.69,10.35,-8.73,-5.37,-0.68
1743,5722.0,0.44,5.48,9.95,-8.73,-5.82,-0.47
1744,5725.0,0.23,3.53,9.34,-8.73,-6.11,-0.37
1745,5729.0,0.28,2.19,9.05,-8.73,-6.17,-0.42
1746,5732.0,0.16,1.99,8.44,-8.73,-6.13,-0.54
1747,5735.0,0.34,1.32,8.14,-8.73,-5.98,-0.63
1748,5738.0,0.55,1.78,6.73,-8.73,-5.93,-0.84
1749,5742.0,0.36,2.08,5.44,-8.73,-5.74,-0.98
1750,5745.0,0.2,3.28,4.48,-8.73,-5.44,-1.19
1751,5748.0,0.44,6.05,3.54,-8.73,-5.25,-1.41
1752,5751.0,1.12,7.02,2.78,-8.73,-5.06,-1.39
1753,5755.0,1.66,5.75,3.07,-7.56,-4.87,-1.18
1754,5758.0,1.7,3.23,3.93,-5.56,-4.7,-0.96
1755,5761.0,1.41,1.16,4.67,-4.5,-4.55,-0.81
1756,5764.0,0.91,-0.37,5.02,-3.96,-4.35,-0.71
1757,5768.0,0.7,-0.91,4.87,-3.7,-4.18,-0.68
1758,5771.0,0.71,-1.41,4.75,-3.41,-3.96,-0.7
1759,5774.0,1.03,-1.98,5.05,-3.18,-3.74,-0.77
1760,5777.0,1.7,-2.28,5.68,-2.93,-3.52,-0.92
1761,5781.0,2.27,-2.0,5.93,-2.73,-3.42,-1.04
1762,5784.0,2.71,-1.69,5.87,-2.53,-3.33,-1.1
1763,5787.0,3.06,-1.47,5.73,-2.35,-3.23,-1.12
1764,5791.0,3.51,-1.61,5.68,-2.11,-3.09,-1.11
1765,5794.0,3.62,-2.41,5.82,-2.03,-2.97,-1.09
1766,5797.0,3.57,-3.15,6.1,-2.17,-2.84,-1.11
1767,5810.0,4.02,-2.51,6.99,-2.34,-2.55,-1.49
1768,5814.0,4.18,-2.33,7.07,-2.19,-2.57,-1.53
1769,5817.0,4.29,-2.12,6.94,-2.02,-2.62,-1.54
1770,5820.0,4.33,-1.94,6.7,-1.86,-2.66,-1.53
1771,5824.0,4.38,-1.92,6.47,-1.65,-2.72,-1.49
1772,5827.0,4.41,-2.0,6.39,-1.5,-2.77,-1.45
1773,5830.0,4.41,-2.12,6.35,-1.37,-2.84,-1.43
1774,5833.0,4.42,-2.24,6.33,-1.25,-2.91,-1.41
1775,5837.0,4.4,-2.38,6.42,-1.11,-3.03,-1.42
1776,5840.0,4.52,-2.44,6.55,-1.01,-3.16,-1.43
1777,5843.0,4.63,-2.49,6.71,-0.93,-3.32,-1.45
1778,5846.0,4.83,-2.51,6.89,-0.87,-3.51,-1.46
1779,5850.0,4.99,-2.41,7.15,-0.83,-3.85,-1.46
1780,5853.0,5.1,-2.3,7.36,-0.8,-4.17,-1.46
1781,5856.0,5.13,-2.21,7.43,-0.81,-4.53,-1.47
1782,5859.0,5.09,-2.09,7.19,-0.77,-5.04,-1.46
1783,5863.0,5.13,-1.89,6.69,-0.73,-5.42,-1.46
1784,5866.0,5.2,-1.65,5.83,-0.74,-5.72,-1.44
1785,5869.0,5.32,-1.4,4.61,-0.9,-5.92,-1.42
1786,5873.0,5.31,-1.29,3.39,-1.25,-5.95,-1.39
1787,5876.0,5.34,-1.38,3.11,-1.43,-5.88,-1.36
1788,5879.0,5.43,-1.3,3.17,-1.6,-5.78,-1.32
1789,5882.0,5.55,-1.27,3.29,-1.81,-5.68,-1.27
1790,5886.0,5.74,-1.25,3.14,-2.12,-5.54,-1.18
1791,5889.0,5.96,-0.85,2.99,-2.48,-5.42,-1.1
1792,5892.0,6.23,0.19,2.85,-3.0,-5.29,-0.96
1793,5895.0,6.54,1.18,2.88,-3.75,-5.18,-0.7
1794,5899.0,6.83,0.82,2.96,-4.33,-5.11,-0.39
1795,5902.0,6.85,-0.24,2.74,-4.77,-5.08,-0.18
1796,5905.0,6.91,-0.82,2.39,-4.94,-5.02,-0.09
1797,5908.0,6.9,-1.58,1.8,-5.09,-4.93,-0.02
1798,5912.0,7.04,-2.5,0.78,-4.33,-4.78,-0.15
1799,5915.0,7.12,-2.76,-0.55,-3.29,-4.61,-0.29
1800,5918.0,7.19,-2.83,-1.57,-2.65,-4.26,-0.39
1801,5921.0,7.4,-2.9,-1.92,-2.22,-3.82,-0.47
1802,5925.0,7.67,-3.67,-1.51,-1.64,-3.25,-0.53
1803,5928.0,7.71,-4.82,-0.49,-1.31,-2.87,-0.6
1804,5931.0,7.71,-5.84,0.88,-1.05,-2.59,-0.73
1805,5935.0,7.73,-6.73,2.33,-0.84,-2.42,-0.95
1806,5938.0,7.65,-7.49,3.1,-0.76,-2.37,-1.13
1807,5941.0,7.65,-8.14,3.85,-0.71,-2.38,-1.38
1808,5944.0,7.71,-8.26,4.53,-0.72,-2.47,-1.66
1809,5948.0,7.85,-7.51,5.09,-0.83,-2.69,-2.02
1810,5951.0,8.0,-6.52,5.06,-0.95,-2.92,-2.24
1811,5954.0,8.09,-5.5,4.62,-1.05,-3.16,-2.39
1812,5957.0,8.13,-4.61,3.88,-1.14,-3.38,-2.48
1813,5961.0,8.19,-3.62,3.07,-1.2,-3.63,-2.56
1814,5964.0,8.27,-2.95,2.82,-1.24,-3.83,-2.57
1815,5967.0,8.32,-2.35,2.75,-1.31,-4.04,-2.57
1816,5970.0,8.37,-1.88,2.6,-1.37,-4.28,-2.54
1817,5974.0,8.3,-1.62,2.11,-1.46,-4.6,-2.48
1818,5977.0,8.21,-1.7,1.61,-1.52,-4.79,-2.44
1819,5980.0,8.06,-1.92,1.07,-1.54,-4.93,-2.44
1820,5984.0,8.0,-2.05,0.41,-1.43,-5.03,-2.47
1821,5987.0,8.01,-1.94,-0.51,-1.34,-5.04,-2.51
1822,5990.0,8.13,-1.68,-1.12,-1.26,-4.97,-2.53
1823,5993.0,8.32,-1.34,-1.66,-1.15,-4.86,-2.52
1824,5997.0,8.57,-0.85,-2.35,-1.03,-4.65,-2.47
1825,6000.0,8.78,-0.46,-2.75,-0.94,-4.46,-2.41
1826,6003.0,9.0,-0.12,-2.99,-0.84,-4.26,-2.34
1827,6006.0,9.34,0.04,-2.99,-0.78,-4.07,-2.26
1828,6010.0,9.67,0.4,-3.0,-0.68,-3.88,-2.18
1829,6013.0,9.87,0.79,-2.94,-0.59,-3.77,-2.09
1830,6016.0,10.15,0.95,-2.89,-0.55,-3.68,-1.99
1831,6020.0,10.35,0.91,-2.89,-0.52,-3.62,-1.89
1832,6023.0,10.48,0.7,-2.71,-0.45,-3.55,-1.76
1833,6036.0,9.57,-0.37,-2.26,-0.19,-3.53,-1.47
1834,6040.0,9.39,-0.5,-2.38,-0.11,-3.52,-1.43
1835,6043.0,9.26,-0.63,-2.46,0.01,-3.48,-1.38
1836,6046.0,9.25,-0.74,-2.33,0.11,-3.46,-1.34
1837,6049.0,9.3,-1.02,-2.12,0.21,-3.46,-1.31
1838,6053.0,9.31,-1.55,-1.92,0.29,-3.47,-1.29
1839,6056.0,9.29,-2.33,-1.7,0.39,-3.51,-1.31
1840,6059.0,9.26,-2.8,-1.71,0.44,-3.55,-1.36
1841,6062.0,9.17,-3.11,-1.85,0.49,-3.57,-1.44
1842,6066.0,9.19,-3.06,-2.12,0.54,-3.58,-1.52
1843,6069.0,9.35,-2.65,-2.77,0.59,-3.56,-1.61
1844,6072.0,9.54,-2.29,-3.35,0.62,-3.51,-1.66
1845,6075.0,9.77,-2.0,-3.89,0.65,-3.43,-1.68
1846,6079.0,10.11,-1.7,-4.43,0.68,-3.29,-1.7
1847,6082.0,10.34,-1.49,-4.6,0.69,-3.19,-1.71
1848,6085.0,10.57,-1.17,-4.5,0.72,-3.09,-1.71
1849,6089.0,10.78,-0.74,-4.25,0.74,-3.04,-1.69
1850,6092.0,10.96,-0.13,-4.03,0.76,-3.05,-1.61
1851,6095.0,11.0,0.24,-4.12,0.79,-3.08,-1.53
1852,6098.0,10.94,0.43,-4.34,0.82,-3.1,-1.42
1853,6102.0,10.91,0.42,-4.63,0.85,-3.1,-1.31
1854,6105.0,10.87,0.25,-5.01,0.87,-3.08,-1.22
1855,6108.0,10.86,0.11,-5.5,0.89,-2.99,-1.13
1856,6111.0,10.83,0.18,-5.77,0.91,-2.9,-1.07
1857,6114.0,10.79,0.37,-5.94,0.93,-2.8,-1.0
1858,6118.0,10.76,0.58,-6.12,0.96,-2.7,-0.92
1859,6121.0,10.7,0.84,-6.4,0.99,-2.55,-0.8
1860,6124.0,10.69,0.92,-6.66,1.01,-2.44,-0.69
1861,6127.0,10.64,0.81,-6.81,1.03,-2.31,-0.59
1862,6131.0,10.63,0.53,-6.76,1.05,-2.19,-0.51
1863,6134.0,10.54,0.11,-6.29,1.09,-2.06,-0.44
1864,6137.0,10.45,0.01,-5.78,1.1,-2.01,-0.4
1865,6140.0,10.37,0.07,-5.41,1.11,-2.01,-0.37
1866,6144.0,10.4,0.12,-5.32,1.1,-2.04,-0.32
1867,6147.0,10.51,0.03,-5.42,1.11,-2.08,-0.25
1868,6150.0,10.56,-0.09,-5.36,1.14,-2.11,-0.22
1869,6153.0,10.61,-0.18,-5.15,1.16,-2.15,-0.19
1870,6157.0,10.59,-0.37,-5.02,1.17,-2.22,-0.17
1871,6160.0,10.48,-0.64,-5.06,1.15,-2.32,-0.19
1872,6163.0,10.37,-0.59,-5.24,1.12,-2.38,-0.22
1873,6167.0,10.35,-0.31,-5.56,1.09,-2.41,-0.25
1874,6170.0,10.37,-0.07,-5.93,1.07,-2.41,-0.26
1875,6173.0,10.39,-0.1,-6.21,1.04,-2.35,-0.26
1876,6176.0,10.42,-0.17,-6.28,1.02,-2.29,-0.27
1877,6180.0,10.43,-0.25,-6.32,0.98,-2.23,-0.27
1878,6183.0,10.46,-0.31,-6.38,0.95,-2.17,-0.28
1879,6186.0,10.41,-0.34,-6.5,0.9,-2.07,-0.3
1880,6189.0,10.38,-0.25,-6.63,0.88,-2.0,-0.3
1881,6193.0,10.33,-0.08,-6.79,0.87,-1.91,-0.3
1882,6196.0,10.29,0.14,-7.02,0.86,-1.79,-0.27
1883,6199.0,10.23,0.24,-7.23,0.86,-1.7,-0.25
1884,6202.0,10.17,0.36,-7.42,0.86,-1.59,-0.22
1885,6206.0,10.1,0.49,-7.51,0.86,-1.47,-0.19
1886,6219.0,9.77,0.55,-7.26,0.87,-0.93,-0.02
1887,6222.0,9.7,0.47,-7.14,0.87,-0.84,0.01
1888,6226.0,9.69,0.42,-7.06,0.86,-0.75,0.03
1889,6229.0,9.68,0.35,-7.02,0.85,-0.66,0.05
1890,6232.0,9.67,0.22,-7.02,0.82,-0.56,0.08
1891,6235.0,9.6,0.15,-7.1,0.8,-0.48,0.09
1892,6238.0,9.52,0.17,-7.21,0.78,-0.39,0.1
1893,6242.0,9.44,0.27,-7.34,0.76,-0.3,0.12
1894,6245.0,9.32,0.36,-7.43,0.73,-0.19,0.14
1895,6248.0,9.19,0.44,-7.49,0.72,-0.03,0.18
1896,6251.0,9.09,0.43,-7.51,0.71,0.09,0.22
1897,6255.0,9.03,0.4,-7.53,0.71,0.22,0.25
1898,6258.0,9.0,0.4,-7.46,0.7,0.35,0.28
1899,6261.0,9.03,0.38,-7.39,0.7,0.52,0.32
1900,6264.0,9.02,0.34,-7.37,0.7,0.64,0.35
1901,6267.0,9.05,0.28,-7.41,0.69,0.76,0.38
1902,6271.0,9.09,0.22,-7.47,0.68,0.9,0.41
1903,6274.0,9.13,0.1,-7.5,0.67,1.04,0.44
1904,6277.0,9.17,-0.08,-7.52,0.66,1.25,0.47
1905,6280.0,9.2,-0.3,-7.55,0.65,1.41,0.49
1906,6283.0,9.13,-0.48,-7.35,0.63,1.59,0.48
1907,6287.0,9.03,-0.53,-6.58,0.52,1.75,0.47
1908,6290.0,8.95,-0.4,-4.75,0.23,1.8,0.49
1909,6293.0,8.71,-0.32,-4.45,-0.03,1.67,0.51
1910,6296.0,8.48,-0.08,-5.34,-0.1,1.67,0.51
1911,6300.0,8.38,0.24,-6.11,-0.14,1.81,0.51
1912,6303.0,8.42,0.24,-6.49,-0.19,2.04,0.5
1913,6306.0,8.8,-0.14,-6.23,-0.26,2.38,0.46
1914,6309.0,9.11,-0.42,-5.84,-0.26,2.59,0.39
1915,6313.0,9.39,-0.59,-5.58,-0.25,2.77,0.3
1916,6316.0,9.56,-0.85,-5.26,-0.25,2.94,0.2
1917,6319.0,9.74,-1.31,-4.65,-0.26,3.12,0.05
1918,6322.0,9.93,-1.6,-4.25,-0.29,3.2,-0.08
1919,6326.0,10.09,-1.76,-4.06,-0.34,3.27,-0.21
1920,6329.0,10.13,-1.87,-3.91,-0.42,3.33,-0.31
1921,6332.0,10.1,-2.08,-3.78,-0.54,3.38,-0.43
1922,6335.0,10.15,-1.98,-3.68,-0.64,3.42,-0.52
1923,6339.0,10.17,-1.85,-3.6,-0.72,3.43,-0.6
1924,6342.0,10.21,-1.74,-3.76,-0.78,3.44,-0.67
1925,6345.0,10.04,-1.64,-4.15,-0.89,3.45,-0.83
1926,6349.0,10.37,-1.59,-4.39,-1.06,3.5,-0.94
1927,6352.0,10.52,-1.28,-4.07,-1.18,3.54,-1.02
1928,6355.0,10.39,-1.21,-3.92,-1.23,3.52,-1.1
1929,6358.0,10.24,-1.17,-3.77,-1.31,3.48,-1.21
1930,6362.0,10.16,-1.24,-3.44,-1.36,3.43,-1.3
1931,6365.0,10.17,-1.19,-3.3,-1.37,3.34,-1.4
1932,6368.0,10.18,-0.88,-3.45,-1.43,3.25,-1.5
1933,6371.0,10.24,-0.82,-3.39,-1.47,3.21,-1.55
1934,6375.0,10.17,-0.74,-3.52,-1.52,3.17,-1.61
1935,6378.0,10.52,-0.6,-4.54,-1.48,3.18,-1.65
1936,6381.0,10.91,-0.22,-4.91,-1.34,3.32,-1.67
1937,6384.0,11.23,-0.17,-5.26,-1.14,3.43,-1.65
1938,6388.0,10.82,-0.19,-4.61,-0.96,3.56,-1.68
1939,6391.0,11.67,0.83,-6.44,-0.8,3.71,-1.58
1940,6394.0,11.61,1.45,-6.87,0.01,4.12,-1.43
1941,6397.0,11.26,2.06,-5.88,0.17,4.43,-1.23
1942,6401.0,11.94,3.51,-7.55,0.77,4.69,-0.94
1943,6404.0,12.49,5.52,-10.38,1.83,5.17,-0.55
1944,6407.0,13.5,9.67,-14.32,3.3,6.07,0.13
1945,6410.0,11.0,11.03,-8.39,3.91,7.41,1.22
1946,6414.0,9.21,8.77,-1.93,3.15,7.63,1.94
1947,6417.0,7.92,5.61,1.02,2.94,7.2,2.33
1948,6420.0,7.05,2.81,0.94,3.2,6.64,2.45
1949,6423.0,6.32,0.73,0.34,3.62,6.2,2.47
1950,6426.0,5.75,-0.4,0.38,4.09,5.86,2.37
1951,6430.0,5.74,-1.26,1.25,4.05,5.7,2.35
1952,6433.0,6.06,-2.52,2.37,3.63,5.51,2.3
1953,6436.0,6.78,-3.69,3.3,3.08,5.25,2.13
1954,6439.0,7.6,-4.37,3.92,2.75,4.94,1.85
1955,6442.0,8.57,-4.25,4.37,2.76,4.45,1.38
1956,6446.0,9.09,-3.65,4.59,2.84,4.08,1.06
1957,6449.0,9.42,-3.77,4.42,2.84,3.69,0.87
1958,6452.0,9.82,-2.47,4.04,2.69,3.36,0.62
1959,6455.0,10.08,-1.26,3.84,2.61,2.96,0.52
1960,6458.0,10.14,-1.08,3.54,2.55,2.69,0.51
1961,6462.0,10.11,-1.24,3.19,2.45,2.44,0.5
1962,6465.0,10.15,-1.34,2.87,2.38,2.23,0.47
1963,6468.0,10.27,-1.23,2.58,2.35,2.04,0.42
1964,6471.0,10.48,-0.74,2.26,2.28,1.84,0.34
1965,6475.0,10.61,-0.34,2.02,2.21,1.71,0.3
1966,6478.0,10.67,-0.07,1.8,2.15,1.62,0.29
1967,6481.0,10.72,0.16,1.58,2.08,1.55,0.28
1968,6484.0,10.7,0.34,1.44,1.99,1.5,0.3
1969,6487.0,9.22,0.51,1.41,1.8,1.36,0.4
1970,6491.0,6.49,0.03,-0.81,0.61,1.24,0.74
1971,6494.0,5.05,-0.28,-4.94,-2.43,1.58,1.25
1972,6497.0,7.01,0.81,-4.88,-5.4,2.58,1.73
1973,6500.0,8.19,0.27,-0.05,-6.1,3.1,1.97
1974,6503.0,9.21,-1.98,5.22,-4.81,2.63,1.62
1975,6507.0,9.69,-2.9,5.54,-3.6,2.0,1.2
1976,6510.0,10.16,-3.34,4.49,-2.59,1.55,0.81
1977,6513.0,10.58,-3.57,4.09,-1.86,1.29,0.48
1978,6516.0,11.02,-3.21,5.04,-1.05,0.93,0.11
1979,6520.0,11.18,-2.87,5.66,-0.5,0.55,-0.08
1980,6523.0,11.22,-3.07,5.48,-0.23,0.17,-0.22
1981,6526.0,11.05,-3.67,4.93,-0.28,-0.12,-0.37
1982,6529.0,10.43,-4.14,4.73,-0.6,-0.37,-0.66
1983,6533.0,9.14,-4.41,5.21,-0.76,-0.62,-0.93
1984,6536.0,9.23,-3.86,5.64,-0.76,-0.93,-1.2
1985,6539.0,10.43,-2.31,6.47,-0.78,-1.3,-1.33
1986,6542.0,10.46,-1.57,7.81,-0.76,-2.1,-1.29
1987,6546.0,10.33,-1.62,7.91,-0.62,-2.85,-1.29
1988,6549.0,10.17,-1.49,7.43,-0.51,-3.57,-1.3
1989,6552.0,10.02,-1.38,6.6,-0.42,-4.22,-1.3
1990,6556.0,9.8,-1.52,5.1,-0.36,-4.89,-1.32
1991,6559.0,9.57,-1.72,3.92,-0.37,-5.22,-1.36
1992,6562.0,8.49,-2.17,2.84,-0.37,-5.42,-1.44
1993,6565.0,8.15,-2.33,1.34,-0.36,-5.44,-1.59
1994,6569.0,7.43,-1.94,0.85,-0.5,-5.24,-1.7
1995,6572.0,5.94,-2.29,-0.16,-0.38,-5.15,-1.88
1996,6575.0,5.89,-2.0,-0.56,-0.32,-4.89,-2.03
1997,6578.0,7.3,-1.08,0.07,-0.27,-4.66,-2.11
1998,6582.0,8.77,0.13,1.23,-0.21,-4.65,-2.04
1999,6585.0,8.7,0.44,1.01,-0.14,-4.8,-1.93
2000,6588.0,8.42,0.27,0.16,0.0,-4.9,-1.83
2001,6591.0,8.46,0.01,-0.37,0.17,-4.89,-1.77
2002,6595.0,8.37,-0.23,-0.41,0.38,-4.81,-1.71
2003,6598.0,8.44,-0.59,-0.53,0.55,-4.72,-1.7
2004,6601.0,8.72,-1.06,-0.18,0.74,-4.6,-1.72
2005,6604.0,9.95,-1.19,1.37,0.89,-4.48,-1.77
2006,6608.0,10.31,-1.93,2.35,0.98,-4.68,-1.82
2007,6611.0,10.08,-2.59,2.53,1.1,-4.77,-1.9
2008,6614.0,9.73,-3.4,2.12,1.19,-4.89,-2.05
2009,6617.0,10.38,-3.34,2.86,1.14,-4.9,-2.21
2010,6621.0,9.55,-3.19,2.89,0.9,-5.15,-2.38
2011,6624.0,8.47,-2.81,1.42,0.7,-5.24,-2.51
2012,6627.0,7.88,-0.89,-0.07,0.22,-5.14,-2.61
2013,6630.0,7.88,1.68,-1.64,-0.87,-4.91,-2.44
2014,6634.0,7.64,1.12,-3.51,-1.13,-4.58,-2.08
2015,6637.0,7.93,0.47,-3.67,-0.58,-4.35,-2.06
2016,6640.0,8.8,0.02,-3.15,-0.51,-4.24,-2.03
2017,6643.0,9.51,-0.38,-3.35,-0.69,-4.17,-2.01
2018,6657.0,10.35,-0.69,-2.66,-0.88,-4.56,-2.37
2019,6660.0,9.97,-0.51,-2.9,-0.83,-4.82,-2.51
2020,6663.0,9.49,-0.27,-3.06,-0.85,-5.08,-2.64
2021,6667.0,8.71,0.06,-3.35,-0.92,-5.45,-2.8
2022,6670.0,8.17,0.3,-3.68,-0.94,-5.71,-2.91
2023,6673.0,7.71,0.58,-4.04,-0.95,-5.94,-3.0
2024,6677.0,7.29,0.99,-4.46,-0.98,-6.22,-3.1
2025,6680.0,7.12,1.26,-4.77,-1.01,-6.41,-3.15
2026,6683.0,7.05,1.51,-5.1,-1.05,-6.57,-3.17
2027,6686.0,7.07,1.71,-5.49,-1.07,-6.7,-3.18
2028,6690.0,7.11,1.94,-6.13,-1.06,-6.79,-3.19
2029,6693.0,7.17,2.07,-6.66,-0.96,-6.79,-3.2
2030,6696.0,7.2,2.18,-7.23,-0.83,-6.73,-3.23
2031,6699.0,7.27,2.31,-7.68,-0.75,-6.61,-3.25
2032,6703.0,7.38,2.57,-8.13,-0.67,-6.39,-3.29
2033,6706.0,7.37,2.88,-8.39,-0.64,-6.2,-3.31
2034,6709.0,7.28,3.22,-8.56,-0.62,-6.0,-3.32
2035,6712.0,7.18,3.59,-8.68,-0.59,-5.81,-3.32
2036,6716.0,7.04,4.05,-8.66,-0.57,-5.58,-3.29
2037,6719.0,6.93,4.29,-8.54,-0.58,-5.44,-3.26
2038,6722.0,6.82,4.4,-8.46,-0.6,-5.33,-3.21
2039,6725.0,6.65,4.43,-8.46,-0.62,-5.22,-3.17
2040,6729.0,6.5,4.44,-8.45,-0.67,-5.08,-3.1
2041,6732.0,6.41,4.44,-8.47,-0.7,-4.97,-3.04
2042,6735.0,6.38,4.44,-8.49,-0.73,-4.86,-2.98
2043,6739.0,6.39,4.39,-8.61,-0.77,-4.74,-2.91
2044,6742.0,6.51,4.32,-8.72,-0.81,-4.56,-2.83
2045,6745.0,6.62,4.27,-8.74,-0.83,-4.43,-2.78
2046,6748.0,6.86,4.49,-8.77,-0.81,-4.31,-2.73
2047,6752.0,6.9,4.6,-9.01,-0.68,-4.19,-2.68
2048,6755.0,6.87,4.57,-8.9,-0.71,-4.01,-2.6
2049,6758.0,6.85,4.46,-8.74,-0.85,-3.89,-2.53
2050,6761.0,6.77,4.31,-8.83,-1.02,-3.79,-2.49
2051,6765.0,6.68,4.2,-9.23,-1.06,-3.61,-2.47
2052,6768.0,6.6,4.27,-9.17,-1.01,-3.46,-2.48
2053,6771.0,6.56,4.36,-9.17,-0.96,-3.33,-2.47
2054,6774.0,6.46,4.38,-9.15,-0.93,-3.2,-2.45
2055,6778.0,6.38,4.35,-8.99,-0.95,-3.04,-2.43
2056,6781.0,6.3,4.16,-8.95,-1.04,-2.94,-2.41
2057,6784.0,6.37,4.21,-9.11,-1.07,-2.84,-2.42
2058,6787.0,6.39,4.28,-9.08,-0.98,-2.76,-2.43
2059,6791.0,6.34,4.25,-9.12,-0.97,-2.67,-2.44
2060,6794.0,6.34,4.3,-9.14,-0.99,-2.6,-2.47
2061,6797.0,6.31,4.52,-9.15,-1.07,-2.54,-2.48
2062,6801.0,6.32,4.84,-9.49,-1.09,-2.48,-2.49
2063,6804.0,6.26,5.26,-9.7,-1.18,-2.36,-2.48
2064,6807.0,6.22,5.57,-9.63,-1.35,-2.27,-2.46
2065,6810.0,6.05,6.0,-10.16,-1.48,-2.19,-2.44
2066,6814.0,6.0,6.33,-10.7,-1.38,-2.05,-2.43
2067,6817.0,6.08,6.6,-10.36,-1.38,-1.84,-2.38
2068,6820.0,6.02,6.6,-10.13,-1.52,-1.72,-2.31
2069,6823.0,5.86,6.53,-10.3,-1.64,-1.6,-2.25
2070,6827.0,5.64,6.56,-10.4,-1.63,-1.45,-2.22
2071,6830.0,5.48,6.51,-10.09,-1.51,-1.24,-2.17
2072,6833.0,5.31,6.36,-9.68,-1.51,-1.11,-2.14
2073,6836.0,5.15,6.24,-9.41,-1.49,-1.01,-2.11
2074,6840.0,4.94,6.17,-9.08,-1.48,-0.93,-2.09
2075,6843.0,4.74,6.34,-8.95,-1.44,-0.85,-2.05
2076,6846.0,4.6,6.73,-8.84,-1.5,-0.77,-2.0
2077,6849.0,4.42,7.35,-9.25,-1.56,-0.66,-1.92
2078,6853.0,4.39,8.07,-9.47,-1.61,-0.41,-1.77
2079,6856.0,4.49,8.44,-9.27,-1.74,-0.22,-1.61
2080,6859.0,4.65,8.53,-9.34,-1.87,-0.04,-1.45
2081,6863.0,4.81,8.53,-9.39,-2.02,0.14,-1.29
2082,6876.0,5.48,10.44,-12.14,-2.39,1.18,-0.37
2083,6879.0,5.62,10.95,-12.9,-2.46,1.52,-0.1
2084,6882.0,5.15,11.63,-16.15,-1.91,1.87,0.08
2085,6886.0,4.54,12.31,-18.84,-0.86,2.57,0.16
2086,6889.0,5.05,13.18,-16.9,0.13,3.62,0.42
2087,6892.0,5.39,12.55,-15.11,0.3,4.14,0.71
2088,6895.0,5.62,11.36,-14.56,0.17,4.56,0.93
2089,6899.0,6.17,10.37,-14.36,-0.01,5.0,1.05
2090,6902.0,7.29,9.9,-15.41,-0.4,5.89,1.12
2091,6905.0,7.35,9.84,-13.06,-0.27,6.32,1.1
2092,6908.0,6.79,9.66,-13.03,-0.28,6.65,1.06
2093,6911.0,5.99,9.68,-12.16,-0.45,7.12,1.09
2094,6915.0,5.76,9.5,-10.52,-0.31,7.3,1.07
2095,6918.0,5.02,8.52,-9.56,-0.05,7.29,0.94
2096,6921.0,4.01,7.35,-9.84,0.18,7.38,0.6
2097,6924.0,3.87,7.32,-9.31,0.42,7.55,0.17
2098,6928.0,4.33,7.94,-8.32,0.68,7.61,-0.07
2099,6931.0,4.32,8.67,-7.41,1.01,7.52,-0.14
2100,6934.0,4.66,8.95,-6.78,1.21,7.4,-0.1
2101,6937.0,4.46,9.25,-6.9,1.32,7.25,0.03
2102,6941.0,3.87,9.47,-7.1,1.41,7.19,0.2
2103,6944.0,3.65,9.35,-7.19,1.43,7.18,0.39
2104,6947.0,3.92,9.28,-7.06,1.38,7.16,0.74
2105,6950.0,4.15,9.09,-6.75,1.35,7.13,1.0
2106,6953.0,4.23,8.77,-6.52,1.29,7.11,1.23
2107,6957.0,4.58,8.56,-6.41,1.11,7.1,1.44
2108,6960.0,5.1,8.61,-6.29,0.9,7.09,1.63
2109,6963.0,6.1,8.78,-6.02,0.76,7.05,1.87
2110,6966.0,6.48,8.7,-5.73,0.65,7.01,2.06
2111,6969.0,6.5,8.5,-5.8,0.46,6.96,2.23
2112,6973.0,6.37,8.42,-6.35,0.55,6.97,2.35
2113,6976.0,6.27,8.39,-6.25,1.02,7.02,2.43
2114,6979.0,6.11,8.06,-5.81,1.09,7.06,2.55
2115,6982.0,5.9,7.47,-5.66,1.0,7.05,2.64
2116,6986.0,5.44,7.05,-5.7,1.23,7.03,2.64
2117,6989.0,4.96,6.81,-5.46,1.72,6.99,2.57
2118,6992.0,5.24,6.63,-4.42,2.22,6.83,2.48
2119,6995.0,5.4,6.37,-3.91,2.18,6.63,2.47
2120,6998.0,5.52,6.16,-4.16,2.09,6.43,2.44
2121,7002.0,5.84,6.23,-4.52,2.18,6.25,2.36
2122,7005.0,5.95,6.52,-4.92,2.35,6.08,2.26
2123,7008.0,6.28,7.07,-3.9,2.73,5.85,2.14
2124,7011.0,6.28,6.74,-3.81,2.47,5.61,2.16
2125,7014.0,6.62,6.36,-4.35,2.33,5.47,2.12
2126,7018.0,7.21,6.32,-4.34,2.11,5.34,2.07
2127,7021.0,7.43,6.31,-4.82,1.99,5.21,2.01
2128,7024.0,7.49,6.2,-4.45,1.72,5.12,1.92
2129,7027.0,6.98,5.64,-4.31,1.19,5.09,1.9
2130,7031.0,6.82,4.95,-3.96,0.7,5.1,1.78
2131,7034.0,7.14,4.67,-3.64,0.2,5.1,1.63
2132,7037.0,7.52,4.57,-3.99,-0.2,5.13,1.45
2133,7040.0,7.04,4.87,-4.44,-0.09,5.25,1.2
2134,7043.0,5.98,4.9,-3.85,0.15,5.38,1.04
2135,7047.0,6.14,4.57,-3.53,0.25,5.53,0.92
2136,7050.0,6.72,4.39,-3.5,0.41,5.7,0.85
2137,7053.0,7.05,4.81,-3.15,0.77,5.98,0.78
2138,7056.0,6.78,4.82,-2.46,0.95,6.15,0.86
2139,7059.0,6.8,4.64,-1.77,0.98,6.3,0.94
2140,7063.0,6.59,4.45,-1.41,0.91,6.43,1.05
2141,7066.0,6.91,4.36,-0.91,0.77,6.55,1.15
2142,7069.0,6.84,4.43,-0.22,0.62,6.6,1.29
2143,7072.0,5.94,3.75,0.65,0.32,6.62,1.42
2144,7075.0,5.44,2.46,1.82,-0.12,6.62,1.49
2145,7079.0,5.88,1.76,3.12,-0.81,6.57,1.49
2146,7082.0,6.36,2.17,3.56,-1.51,6.33,1.47
2147,7085.0,6.7,3.4,2.47,-1.86,5.93,1.44
2148,7088.0,6.6,3.86,0.91,-1.69,5.74,1.43
2149,7092.0,6.78,4.46,-0.01,-1.32,5.7,1.42
2150,7095.0,7.2,5.13,-0.07,-1.0,5.74,1.47
2151,7098.0,7.85,5.54,1.24,-0.73,5.74,1.62
2152,7101.0,7.42,4.17,2.61,-0.49,5.52,1.58
2153,7104.0,8.86,4.03,2.38,-0.47,5.31,1.47
2154,7108.0,8.93,3.51,2.21,-0.9,5.17,1.44
2155,7111.0,8.85,3.45,2.34,-1.09,5.05,1.31
2156,7114.0,8.56,3.13,2.68,-1.24,4.85,1.12
2157,7117.0,8.85,3.56,2.84,-1.31,4.72,1.0
2158,7121.0,8.65,4.41,2.9,-1.25,4.55,0.98
2159,7124.0,7.9,4.64,4.67,-0.84,4.38,0.97
2160,7127.0,10.28,2.56,19.05,-3.57,3.21,1.1
2161,7130.0,10.29,4.39,14.11,-4.88,0.69,1.02
2162,7133.0,8.17,6.11,8.71,-5.39,0.13,1.14
2163,7137.0,7.06,5.34,7.06,-5.54,0.01,1.3
2164,7140.0,5.98,4.43,5.78,-5.11,0.05,1.4
2165,7143.0,4.58,4.04,4.86,-4.47,0.2,1.52
2166,7146.0,3.04,3.1,4.23,-3.1,0.38,1.26
2167,7149.0,2.33,1.92,3.85,-2.45,0.68,1.03
2168,7153.0,2.69,1.69,4.64,-2.18,0.7,0.83
2169,7156.0,5.02,2.42,3.9,-1.88,0.47,0.65
2170,7159.0,6.66,3.44,3.4,-1.99,0.23,0.96
2171,7162.0,5.71,3.13,2.82,-2.07,-0.2,1.32
2172,7166.0,6.17,2.4,2.93,-1.75,-0.4,1.24
2173,7169.0,7.57,1.98,2.65,-1.34,-0.57,1.04
2174,7172.0,7.78,1.73,1.1,-1.34,-0.84,0.93
2175,7175.0,7.19,0.76,0.23,-1.76,-0.93,0.81
2176,7178.0,7.05,0.29,0.7,-1.98,-0.91,0.58
2177,7182.0,7.26,0.74,1.6,-2.02,-0.87,0.37
2178,7185.0,7.63,1.55,2.11,-1.86,-0.8,0.26
2179,7188.0,8.66,2.27,2.52,-1.66,-0.66,0.29
2180,7191.0,9.2,2.34,2.81,-1.58,-0.64,0.37
2181,7195.0,9.66,2.2,2.92,-1.52,-0.67,0.45
2182,7198.0,9.73,2.12,2.75,-1.47,-0.72,0.52
2183,7201.0,9.42,1.97,2.84,-1.38,-0.75,0.56
2184,7204.0,8.7,1.72,2.77,-1.06,-0.83,0.56
2185,7208.0,8.21,1.52,1.98,-0.8,-0.87,0.53
2186,7211.0,7.79,1.35,1.2,-0.68,-0.85,0.51
2187,7214.0,7.18,1.17,0.62,-0.63,-0.74,0.5
2188,7217.0,6.68,0.87,0.26,-0.53,-0.44,0.49
2189,7220.0,6.51,0.72,0.15,-0.46,-0.18,0.48
2190,7224.0,6.58,0.63,0.16,-0.39,0.08,0.47
2191,7227.0,6.85,0.67,0.37,-0.34,0.33,0.48
2192,7230.0,7.23,0.74,0.66,-0.27,0.55,0.52
2193,7233.0,7.31,0.71,0.99,-0.17,0.77,0.61
2194,7237.0,7.44,0.6,1.29,-0.06,0.89,0.66
2195,7240.0,7.58,0.49,1.35,0.07,0.98,0.69
2196,7243.0,7.59,0.39,1.28,0.2,1.1,0.7
2197,7246.0,7.39,0.44,0.76,0.33,1.33,0.72
2198,7249.0,6.76,0.41,0.85,0.56,1.94,0.85
2199,7253.0,6.92,0.53,0.95,0.78,2.35,0.92
2200,7256.0,7.14,0.8,1.29,0.98,2.72,1.0
2201,7259.0,7.39,1.1,2.08,1.22,2.97,1.06
2202,7262.0,7.54,1.32,2.76,1.55,3.05,1.1
2203,7265.0,7.66,1.4,2.96,2.01,2.95,1.12
2204,7269.0,7.61,1.51,3.37,2.33,2.84,1.1
2205,7272.0,7.63,1.54,3.47,2.75,2.65,1.08
2206,7275.0,7.75,1.64,3.13,3.1,2.47,1.06
2207,7278.0,7.92,1.57,2.57,3.3,2.3,1.05
2208,7281.0,8.03,1.35,2.06,3.29,2.15,1.02
2209,7284.0,8.04,1.16,2.05,3.2,2.08,0.98
2210,7288.0,8.18,1.05,2.13,3.06,2.0,0.94
2211,7291.0,8.17,1.02,2.22,2.88,1.92,0.87
2212,7294.0,8.02,1.05,2.24,2.66,1.84,0.81
2213,7297.0,7.81,1.29,2.07,2.36,1.77,0.72
2214,7300.0,7.59,1.5,1.79,2.1,1.74,0.68
2215,7304.0,7.34,1.73,1.62,1.79,1.75,0.66
2216,7307.0,7.27,1.63,1.41,1.41,1.78,0.66
2217,7310.0,7.06,1.69,1.52,1.0,1.84,0.64
2218,7313.0,6.8,1.87,2.13,0.59,1.9,0.62
2219,7316.0,6.82,1.94,3.15,0.18,1.9,0.62
2220,7320.0,7.24,1.98,3.65,-0.01,1.86,0.62
2221,7323.0,7.75,1.97,3.99,-0.19,1.79,0.64
2222,7326.0,7.89,1.96,4.13,-0.36,1.69,0.69
2223,7329.0,7.85,1.88,4.14,-0.53,1.59,0.72
2224,7332.0,7.68,1.88,4.05,-0.77,1.51,0.73
2225,7336.0,7.81,2.06,3.97,-0.91,1.48,0.71
2226,7339.0,7.75,2.1,3.74,-1.04,1.46,0.7
2227,7342.0,7.65,1.79,3.41,-1.2,1.5,0.66
2228,7345.0,7.06,1.26,3.0,-1.48,1.6,0.59
2229,7349.0,6.97,0.93,2.75,-1.72,1.74,0.53
2230,7352.0,7.26,0.79,2.81,-1.98,1.9,0.47
2231,7355.0,7.49,0.78,2.98,-2.2,2.06,0.41
2232,7358.0,7.44,0.7,3.22,-2.36,2.21,0.35
2233,7361.0,7.14,0.88,3.66,-2.47,2.41,0.29
2234,7365.0,6.77,1.22,3.99,-2.45,2.58,0.27
2235,7368.0,6.44,1.56,4.36,-2.38,2.78,0.3
2236,7371.0,6.24,1.74,4.76,-2.25,2.96,0.34
2237,7374.0,6.01,2.07,4.95,-2.19,3.14,0.42
2238,7377.0,5.86,2.45,5.32,-2.29,3.44,0.61
2239,7381.0,5.81,2.44,5.73,-2.31,3.62,0.75
2240,7384.0,6.33,1.71,6.59,-2.28,3.69,0.89
2241,7387.0,5.87,2.1,6.54,-2.18,3.74,0.93
2242,7390.0,5.73,1.85,6.54,-2.09,3.77,1.0
2243,7394.0,5.89,1.11,7.09,-2.08,3.78,1.08
2244,7397.0,5.95,1.4,7.38,-1.91,3.63,1.06
2245,7400.0,5.86,1.82,6.98,-1.73,3.51,1.06
2246,7403.0,5.76,1.89,6.72,-1.61,3.42,1.09
2247,7406.0,5.63,2.23,6.98,-1.47,3.34,1.14
2248,7410.0,5.64,2.07,6.9,-1.11,3.17,1.19
2249,7413.0,5.36,1.98,6.29,-0.97,3.11,1.23
2250,7416.0,5.16,1.77,6.6,-0.85,3.04,1.27
2251,7419.0,4.99,2.38,6.71,-0.47,2.95,1.31
2252,7422.0,4.92,1.62,6.77,-0.01,2.75,1.37
2253,7426.0,4.92,1.2,6.69,0.31,2.62,1.4
2254,7429.0,5.31,-1.15,6.62,0.2,2.4,1.37
2255,7432.0,4.94,-0.05,6.91,0.19,2.26,1.29
2256,7435.0,4.81,1.16,5.24,0.06,2.1,1.33
2257,7439.0,4.78,-0.81,4.63,0.84,2.28,1.32
2258,7442.0,4.52,-2.1,3.83,0.61,2.49,1.23
2259,7445.0,4.35,-1.67,3.26,0.2,2.81,1.15
2260,7448.0,4.44,-1.45,4.24,-0.3,3.06,1.13
2261,7451.0,4.01,-0.84,4.11,-0.66,3.33,1.12
2262,7455.0,3.61,-0.15,3.51,-0.67,3.9,1.13
2263,7458.0,3.59,0.15,3.24,-0.69,4.39,1.18
2264,7461.0,3.92,0.17,4.71,-0.85,4.84,1.25
2265,7464.0,4.4,-0.01,7.68,-1.27,4.87,1.3
2266,7467.0,4.6,0.2,9.19,-1.37,4.54,1.29
2267,7471.0,4.41,0.29,8.87,-1.29,4.02,1.28
2268,7474.0,4.15,0.02,8.35,-1.22,3.69,1.25
2269,7477.0,3.9,-0.27,7.84,-1.15,3.39,1.2
2270,7480.0,3.73,-0.45,7.11,-1.11,3.14,1.13
2271,7484.0,3.68,-0.36,6.01,-1.14,2.96,1.03
2272,7487.0,3.76,-0.05,5.49,-1.23,2.97,0.99
2273,7490.0,3.8,0.2,5.3,-1.33,3.04,0.98
2274,7493.0,3.71,0.3,5.33,-1.43,3.14,1.0
2275,7497.0,3.5,0.18,5.55,-1.52,3.23,1.02
2276,7500.0,3.18,-0.15,6.16,-1.59,3.31,1.04
2277,7503.0,2.96,-0.43,6.67,-1.62,3.3,1.02
2278,7506.0,2.8,-0.65,7.05,-1.6,3.22,0.98
2279,7509.0,2.7,-0.76,7.25,-1.56,3.11,0.91
2280,7513.0,2.66,-0.79,7.19,-1.46,2.96,0.8
2281,7516.0,2.58,-0.71,7.06,-1.38,2.86,0.72
2282,7519.0,2.27,-0.68,6.98,-1.3,2.77,0.65
2283,7522.0,1.97,-0.73,6.91,-1.22,2.68,0.6
2284,7526.0,1.64,-0.69,6.85,-1.16,2.59,0.55
2285,7529.0,1.05,-0.32,7.11,-1.06,2.46,0.52
2286,7532.0,0.72,0.07,6.77,-0.89,2.31,0.53
2287,7535.0,0.27,0.22,6.89,-0.66,2.2,0.57
2288,7538.0,-0.2,0.24,7.02,-0.46,2.02,0.59
2289,7542.0,-0.53,1.87,5.68,-0.03,1.9,0.68
2290,7545.0,-0.94,2.65,5.77,0.3,1.9,0.84
2291,7548.0,-1.12,2.5,5.67,0.76,1.87,1.0
2292,7551.0,-0.74,2.23,5.47,1.36,1.89,1.18
2293,7555.0,-1.06,1.35,5.55,1.81,1.89,1.29
2294,7558.0,-0.85,1.32,5.81,2.08,1.99,1.4
2295,7561.0,-0.38,1.71,5.6,2.26,2.01,1.45
2296,7564.0,0.27,1.26,5.41,2.7,2.11,1.54
2297,7567.0,0.66,0.38,4.95,2.99,2.25,1.55
2298,7571.0,1.0,0.21,4.76,3.02,2.4,1.51
2299,7574.0,1.42,-0.01,4.89,3.08,2.63,1.44
2300,7577.0,1.55,0.06,5.35,2.94,2.77,1.38
2301,7580.0,1.62,0.01,5.38,2.89,2.84,1.3
2302,7583.0,1.52,0.14,5.7,2.82,2.95,1.24
2303,7587.0,1.18,-0.28,7.08,2.56,2.95,1.19
2304,7590.0,0.99,0.07,7.18,2.51,2.85,1.09
2305,7593.0,0.71,0.57,7.9,2.48,2.78,1.04
2306,7596.0,0.98,0.94,8.03,2.53,2.69,1.01
2307,7599.0,1.12,1.49,8.04,2.69,2.62,0.99
2308,7603.0,0.93,1.72,7.8,2.95,2.51,0.98
2309,7606.0,0.78,1.89,8.07,3.42,2.31,0.96
2310,7609.0,0.76,1.87,7.65,3.8,2.13,0.94
2311,7612.0,0.74,1.89,8.13,4.17,1.91,0.9
2312,7615.0,0.53,2.01,8.33,4.4,1.6,0.86
2313,7619.0,0.11,2.09,7.49,4.69,1.33,0.79
2314,7622.0,-0.06,1.53,7.72,4.93,1.05,0.66
2315,7625.0,-0.27,1.35,7.18,5.06,0.8,0.51
2316,7628.0,-0.3,1.13,6.66,5.04,0.64,0.37
2317,7631.0,-0.33,1.19,6.0,4.91,0.54,0.25
2318,7635.0,-0.3,1.36,5.54,4.76,0.55,0.14
2319,7638.0,-0.48,1.53,5.29,4.62,0.63,-0.01
2320,7641.0,-0.83,1.59,5.17,4.6,0.69,-0.09
2321,7644.0,-0.79,1.7,4.92,4.69,0.77,-0.18
2322,7648.0,-0.72,1.79,4.71,4.88,0.92,-0.23
2323,7651.0,-0.54,2.18,4.79,5.16,1.15,-0.29
2324,7654.0,-0.4,2.44,4.72,5.38,1.33,-0.31
2325,7657.0,-0.05,4.96,4.65,5.36,1.45,-0.47
2326,7660.0,0.53,4.45,5.37,5.01,1.27,-0.67
2327,7664.0,-0.01,3.59,4.48,4.7,1.38,-0.91
2328,7667.0,-0.02,3.15,3.37,4.25,1.79,-1.17
2329,7670.0,-0.09,2.87,3.02,4.05,2.24,-1.16
2330,7673.0,-0.3,2.61,2.94,3.97,2.6,-1.0
2331,7677.0,-0.41,2.4,3.16,3.97,2.83,-0.77
2332,7680.0,-0.96,2.15,3.7,4.02,2.72,-0.32
2333,7683.0,-1.66,1.94,3.56,3.92,2.82,0.0
2334,7686.0,-2.11,2.56,4.18,3.82,3.08,0.39
2335,7689.0,-2.11,3.42,4.95,3.77,3.33,0.81
2336,7693.0,-1.96,3.84,5.43,3.7,3.57,1.13
2337,7696.0,-1.38,4.13,6.38,3.55,3.78,1.31
2338,7699.0,-1.38,4.26,6.92,3.36,3.73,1.33
2339,7702.0,-1.15,4.28,7.18,3.16,3.6,1.25
2340,7706.0,-1.08,4.31,7.29,3.0,3.49,1.1
2341,7709.0,-1.07,4.28,7.3,2.82,3.21,0.93
2342,7712.0,-0.88,4.34,7.55,2.72,2.75,0.72
2343,7715.0,-0.52,4.52,7.25,2.76,2.34,0.57
2344,7718.0,-0.36,4.83,6.69,2.93,2.07,0.44
2345,7722.0,-0.48,5.19,6.22,3.17,1.97,0.3
2346,7725.0,-0.08,5.26,6.01,3.65,2.05,0.06
2347,7728.0,-0.28,5.42,6.11,4.06,2.26,-0.23
2348,7731.0,-0.73,5.74,6.42,4.4,2.45,-0.51
2349,7734.0,-1.23,6.19,7.05,4.68,2.55,-0.74
2350,7738.0,-1.83,6.6,7.03,4.83,2.64,-0.89
2351,7741.0,-2.59,7.41,8.01,4.91,2.94,-0.96
2352,7744.0,-3.39,7.86,9.01,4.73,2.84,-0.82
2353,7747.0,-4.2,7.88,9.59,4.44,2.61,-0.63
2354,7751.0,-4.91,7.74,9.84,4.12,2.31,-0.48
2355,7754.0,-5.47,7.43,9.42,3.67,1.75,-0.35
2356,7757.0,-5.44,7.04,8.79,3.34,1.39,-0.32
2357,7760.0,-5.55,6.82,7.99,2.96,1.04,-0.3
2358,7764.0,-5.36,6.65,7.5,2.53,0.72,-0.27
2359,7767.0,-5.15,6.53,7.3,2.13,0.37,-0.22
2360,7770.0,-5.19,6.53,6.93,1.63,-0.16,-0.05
2361,7773.0,-5.01,6.47,6.64,1.29,-0.52,0.09
2362,7777.0,-4.78,6.44,6.49,1.04,-0.78,0.21
2363,7780.0,-4.71,6.48,6.3,0.85,-0.97,0.32
2364,7783.0,-4.52,6.54,5.94,0.69,-1.13,0.4
2365,7786.0,-4.36,6.63,5.73,0.64,-1.18,0.42
2366,7789.0,-4.19,6.78,5.47,0.68,-1.2,0.44
2367,7793.0,-3.95,7.05,5.15,0.79,-1.2,0.47
2368,7796.0,-3.66,7.47,4.78,1.04,-1.18,0.53
2369,7799.0,-3.48,7.77,4.49,1.3,-1.16,0.58
2370,7802.0,-3.38,8.06,4.2,1.58,-1.12,0.65
2371,7806.0,-3.34,8.36,3.95,1.86,-1.05,0.72
2372,7809.0,-3.37,8.65,3.7,2.12,-0.96,0.8
2373,7812.0,-3.38,8.96,3.47,2.39,-0.8,0.93
2374,7815.0,-3.32,9.12,3.38,2.51,-0.66,1.04
2375,7819.0,-3.25,9.2,3.38,2.56,-0.52,1.15
2376,7822.0,-3.16,9.14,3.44,2.55,-0.38,1.27
2377,7825.0,-2.97,8.86,3.58,2.5,-0.22,1.41
2378,7828.0,-2.71,8.55,3.67,2.45,-0.1,1.49
2379,7831.0,-2.44,8.46,3.65,2.41,-0.01,1.54
2380,7835.0,-2.16,8.55,3.49,2.33,0.08,1.59
2381,7838.0,-1.92,8.46,3.51,2.2,0.17,1.63
2382,7841.0,-1.59,9.24,3.37,1.99,0.26,1.66
2383,7844.0,-1.8,7.66,4.33,1.77,0.33,1.68
2384,7848.0,-1.37,9.35,3.76,1.74,0.27,1.64
2385,7851.0,-1.51,9.32,3.25,1.27,0.47,1.7
2386,7854.0,-1.39,9.0,4.06,0.58,0.64,1.73
2387,7857.0,-1.31,9.09,4.45,0.22,0.72,1.77
2388,7860.0,-1.3,9.26,4.55,-0.14,0.82,1.81
2389,7864.0,-1.36,8.95,4.56,-0.52,0.91,1.86
2390,7867.0,-1.35,9.05,4.6,-0.88,1.02,1.93
2391,7870.0,-1.37,8.8,4.95,-1.64,1.27,2.05
2392,7873.0,-1.5,8.54,5.4,-2.12,1.39,2.11
2393,7877.0,-1.51,8.63,5.9,-2.62,1.48,2.14
2394,7880.0,-1.37,8.65,6.7,-3.48,1.59,2.26
2395,7883.0,-1.68,8.2,7.7,-4.41,1.53,2.35
2396,7886.0,-1.49,8.2,10.48,-5.94,1.58,2.54
2397,7890.0,-0.34,6.21,17.68,-8.32,1.19,2.76
2398,7893.0,-0.22,7.14,21.17,-8.73,0.51,3.1
2399,7896.0,-0.28,9.63,20.25,-8.73,-0.27,3.44
2400,7899.0,-0.45,11.14,13.18,-8.73,-1.55,3.85
2401,7903.0,-1.86,8.38,6.22,-8.73,-2.16,4.1
2402,7906.0,-5.55,-1.0,-0.26,-8.73,-1.72,4.12
2403,7909.0,-9.05,-7.65,-3.3,-8.73,-0.51,3.5
2404,7912.0,-10.86,-6.38,-6.22,-8.73,-0.13,1.85
2405,7916.0,-9.92,-0.07,-10.02,-8.73,-0.17,0.86
2406,7919.0,-6.04,7.2,-9.62,-6.68,0.63,0.69
2407,7922.0,-1.37,10.77,-3.81,-4.51,1.96,1.29
2408,7925.0,-0.54,8.05,2.46,-3.25,2.29,1.75
2409,7929.0,0.48,4.71,6.1,-2.26,2.21,1.8
2410,7932.0,2.03,4.84,7.38,-1.32,2.0,1.55
2411,7935.0,2.92,7.44,8.62,-0.68,1.91,1.47
2412,7938.0,1.92,9.47,11.39,0.3,1.39,1.76
2413,7941.0,0.39,8.69,10.96,0.84,0.99,2.17
2414,7945.0,-0.56,7.69,9.32,1.17,0.8,2.54
2415,7948.0,-0.95,6.6,8.32,1.33,0.83,2.79
2416,7951.0,-1.4,5.04,8.11,1.36,0.94,2.84
2417,7954.0,-2.29,3.56,8.2,1.21,1.12,2.59
2418,7958.0,-2.87,3.08,8.23,0.9,1.27,2.29
2419,7961.0,-3.15,2.99,8.24,0.47,1.42,1.98
2420,7964.0,-3.13,3.05,8.1,-0.0,1.58,1.75
2421,7967.0,-2.9,3.14,7.59,-0.62,1.86,1.59
2422,7970.0,-2.73,2.98,7.36,-1.01,2.09,1.56
2423,7974.0,-2.58,2.72,7.18,-1.32,2.3,1.59
2424,7977.0,-2.52,2.33,7.07,-1.55,2.48,1.65
2425,7980.0,-2.52,1.97,6.96,-1.73,2.61,1.72
2426,7983.0,-2.64,1.37,6.9,-1.94,2.7,1.81
2427,7987.0,-2.84,0.88,7.06,-2.04,2.67,1.84
2428,7990.0,-3.05,0.52,7.12,-2.13,2.55,1.85
2429,7993.0,-2.95,0.16,7.12,-2.19,2.36,1.84
2430,7996.0,-2.73,-0.21,7.15,-2.19,2.1,1.78
2431,7999.0,-2.73,-0.39,7.09,-2.13,1.88,1.71
2432,8003.0,-3.0,-0.31,7.1,-2.07,1.62,1.63
2433,8006.0,-3.05,-0.38,6.93,-2.02,1.32,1.57
2434,8009.0,-3.43,-0.23,6.93,-1.99,0.86,1.52
2435,8012.0,-2.95,-0.5,6.79,-1.93,0.58,1.47
2436,8016.0,-3.22,-0.25,6.84,-1.84,0.33,1.39
2437,8019.0,-2.81,-0.44,6.68,-1.76,0.07,1.32
2438,8022.0,-2.68,-0.25,6.57,-1.61,-0.19,1.19
2439,8025.0,-2.45,-0.22,6.53,-1.48,-0.31,1.1
2440,8029.0,-2.77,0.08,6.69,-1.32,-0.4,1.02
2441,8032.0,-2.86,0.11,6.72,-1.22,-0.54,0.98
2442,8035.0,-2.87,0.36,6.75,-1.08,-0.69,0.92
2443,8039.0,-2.6,0.44,6.73,-0.96,-0.77,0.88
2444,8042.0,-2.46,0.57,6.81,-0.8,-0.83,0.85
2445,8045.0,-2.75,0.72,7.05,-0.66,-0.95,0.83
2446,8048.0,-2.05,0.53,6.96,-0.45,-1.01,0.79
2447,8051.0,-1.53,0.61,7.02,-0.03,-0.99,0.71
2448,8055.0,-1.4,0.78,7.17,0.34,-0.95,0.63
2449,8058.0,-1.31,0.96,7.3,0.73,-0.91,0.55
2450,8061.0,-1.29,1.33,7.55,1.13,-0.88,0.48
2451,8064.0,-0.99,1.77,7.62,1.62,-0.92,0.44
2452,8068.0,-0.64,2.14,7.69,1.99,-0.88,0.43
2453,8071.0,-0.5,2.45,7.79,2.32,-0.84,0.46
2454,8074.0,-0.42,2.59,7.85,2.61,-0.81,0.49
2455,8077.0,-0.34,2.72,7.78,2.97,-0.78,0.53
2456,8081.0,-0.27,2.82,7.66,3.22,-0.76,0.56
2457,8084.0,-0.2,2.89,7.52,3.45,-0.73,0.61
2458,8087.0,-0.2,2.9,7.37,3.64,-0.69,0.65
2459,8090.0,-0.26,2.91,7.19,3.78,-0.65,0.68
2460,8093.0,-0.46,2.87,7.04,3.87,-0.58,0.69
2461,8097.0,-0.7,2.8,6.94,3.88,-0.53,0.67
2462,8100.0,-0.96,2.74,6.82,3.85,-0.47,0.65
2463,8103.0,-1.21,2.68,6.7,3.79,-0.42,0.62
2464,8106.0,-1.49,2.57,6.54,3.7,-0.34,0.58
2465,8110.0,-1.68,2.5,6.39,3.64,-0.29,0.54
2466,8113.0,-1.76,2.46,6.22,3.59,-0.25,0.51
2467,8116.0,-1.83,2.4,6.0,3.56,-0.2,0.49
2468,8119.0,-1.78,2.35,5.7,3.55,-0.14,0.47
2469,8123.0,-1.7,2.33,5.5,3.56,-0.09,0.46
2470,8126.0,-1.6,2.32,5.33,3.55,-0.04,0.45
2471,8129.0,-1.48,2.29,5.17,3.52,0.01,0.43
2472,8132.0,-1.31,2.24,4.98,3.47,0.07,0.37
2473,8135.0,-0.94,2.16,4.77,3.42,0.16,0.27
2474,8139.0,-0.64,2.16,4.53,3.41,0.23,0.17
2475,8142.0,-0.31,2.19,4.29,3.44,0.32,0.08
2476,8145.0,-0.15,2.3,4.11,3.51,0.41,-0.01
2477,8148.0,-0.07,2.47,4.12,3.61,0.48,-0.09
2478,8152.0,-0.1,2.79,4.19,3.73,0.58,-0.2
2479,8155.0,-0.18,3.1,4.3,3.8,0.64,-0.27
2480,8158.0,-0.32,3.41,4.44,3.83,0.69,-0.34
2481,8161.0,-0.54,3.67,4.68,3.84,0.71,-0.41
2482,8165.0,-0.81,3.96,4.7,3.79,0.73,-0.51
2483,8168.0,-0.99,4.1,4.96,3.74,0.73,-0.59
2484,8171.0,-1.15,4.22,5.15,3.7,0.7,-0.67
2485,8174.0,-1.27,4.29,5.11,3.67,0.66,-0.74
2486,8177.0,-1.4,4.39,5.0,3.66,0.63,-0.83
2487,8181.0,-1.57,4.48,4.98,3.66,0.6,-0.89
2488,8184.0,-1.72,4.6,5.0,3.68,0.55,-0.94
2489,8187.0,-1.91,4.74,4.96,3.69,0.49,-0.99
2490,8190.0,-2.07,4.88,4.86,3.68,0.43,-1.02
2491,8194.0,-2.2,5.1,4.79,3.65,0.36,-1.05
2492,8197.0,-2.2,5.24,4.85,3.65,0.3,-1.07
2493,8200.0,-2.23,5.24,4.5,3.64,0.24,-1.08
2494,8203.0,-2.31,5.17,4.06,3.56,0.21,-1.08
2495,8206.0,-2.35,5.16,3.88,3.43,0.17,-1.08
2496,8210.0,-2.29,5.16,3.88,3.35,0.14,-1.08
2497,8213.0,-2.14,5.16,3.88,3.31,0.1,-1.09
2498,8216.0,-1.91,5.25,4.02,3.33,0.06,-1.1
2499,8219.0,-1.92,5.02,3.28,3.31,0.02,-1.11
2500,8223.0,-1.97,5.04,3.1,3.19,0.02,-1.12
2501,8226.0,-2.04,5.11,3.05,3.11,0.0,-1.13
2502,8229.0,-1.96,5.43,3.44,3.05,-0.02,-1.16
2503,8232.0,-1.97,5.23,3.0,3.05,-0.1,-1.18
2504,8236.0,-1.88,5.51,2.76,2.89,-0.11,-1.21
2505,8239.0,-1.79,5.73,2.94,2.81,-0.14,-1.2
2506,8242.0,-1.72,5.79,2.82,2.76,-0.17,-1.18
2507,8245.0,-1.46,6.39,4.24,2.77,-0.24,-1.13
2508,8249.0,-1.45,6.57,4.47,3.26,-0.67,-1.03
2509,8252.0,-1.54,6.27,2.8,3.34,-0.77,-0.97
2510,8255.0,-1.66,6.14,1.64,3.12,-0.68,-0.92
2511,8258.0,-1.78,6.22,2.51,2.84,-0.57,-0.89
2512,8262.0,-2.21,5.74,3.02,2.74,-0.65,-0.92
2513,8265.0,-2.27,5.64,2.76,2.6,-0.68,-0.99
2514,8268.0,-2.28,5.56,2.53,2.41,-0.67,-1.08
2515,8271.0,-2.47,5.56,2.39,2.18,-0.61,-1.17
2516,8275.0,-2.58,5.77,2.61,1.87,-0.5,-1.27
2517,8278.0,-2.57,6.06,2.85,1.71,-0.44,-1.32
2518,8281.0,-2.54,6.45,3.0,1.58,-0.4,-1.34
2519,8284.0,-2.6,6.79,3.17,1.5,-0.36,-1.35
2520,8288.0,-2.66,7.15,3.36,1.47,-0.34,-1.34
2521,8291.0,-2.74,7.64,3.58,1.48,-0.34,-1.3
2522,8294.0,-2.8,7.94,3.71,1.53,-0.35,-1.25
2523,8297.0,-2.84,8.18,3.8,1.59,-0.36,-1.2
2524,8301.0,-2.86,8.38,3.88,1.66,-0.38,-1.14
2525,8304.0,-2.84,8.58,3.9,1.77,-0.41,-1.07
2526,8307.0,-2.82,8.61,3.84,1.84,-0.43,-1.02
2527,8310.0,-2.78,8.6,3.76,1.88,-0.45,-0.99
2528,8314.0,-2.78,8.58,3.65,1.91,-0.46,-0.97
2529,8317.0,-2.75,8.56,3.47,1.91,-0.47,-0.94
2530,8320.0,-2.74,8.52,3.36,1.89,-0.47,-0.92
2531,8323.0,-2.69,8.47,3.25,1.86,-0.46,-0.89
2532,8326.0,-2.66,8.4,3.17,1.82,-0.46,-0.85
2533,8330.0,-2.61,8.26,3.17,1.79,-0.45,-0.77
2534,8333.0,-2.59,8.12,3.15,1.78,-0.45,-0.71
2535,8336.0,-2.6,7.98,3.1,1.79,-0.45,-0.65
2536,8339.0,-2.58,7.92,3.02,1.79,-0.46,-0.6
2537,8343.0,-2.57,7.87,2.83,1.79,-0.48,-0.54
2538,8346.0,-2.55,7.86,2.68,1.75,-0.5,-0.51
2539,8349.0,-2.55,7.9,2.51,1.69,-0.53,-0.51
2540,8352.0,-2.52,7.98,2.36,1.6,-0.55,-0.52
2541,8356.0,-2.48,8.14,2.18,1.46,-0.58,-0.55
2542,8359.0,-2.43,8.33,2.05,1.33,-0.6,-0.57
2543,8362.0,-2.42,8.51,1.9,1.18,-0.62,-0.59
2544,8365.0,-2.44,8.67,1.81,1.01,-0.63,-0.6
2545,8369.0,-2.47,8.86,1.76,0.76,-0.64,-0.59
2546,8372.0,-2.5,8.96,1.74,0.58,-0.66,-0.57
2547,8375.0,-2.59,9.04,1.75,0.38,-0.67,-0.53
2548,8378.0,-2.74,9.07,1.81,0.18,-0.68,-0.46
2549,8382.0,-2.83,9.11,1.86,-0.07,-0.69,-0.34
2550,8385.0,-2.92,9.12,1.85,-0.27,-0.7,-0.23
2551,8388.0,-2.96,9.1,1.87,-0.48,-0.71,-0.13
2552,8392.0,-2.94,9.04,1.89,-0.69,-0.72,-0.06
2553,8395.0,-2.83,8.94,1.88,-1.0,-0.74,-0.01
2554,8398.0,-2.78,8.91,1.85,-1.25,-0.77,-0.0
2555,8401.0,-2.78,8.93,1.73,-1.53,-0.81,-0.02
2556,8405.0,-2.78,8.98,1.5,-1.88,-0.85,-0.03
2557,8408.0,-2.81,9.07,1.24,-2.45,-0.9,-0.04
2558,8411.0,-2.75,9.16,1.16,-2.96,-0.93,-0.04
2559,8414.0,-2.65,9.19,1.18,-3.52,-0.94,-0.02
2560,8418.0,-2.55,9.17,1.41,-4.07,-0.96,-0.02
2561,8421.0,-2.49,9.11,1.81,-4.76,-1.01,-0.06
2562,8424.0,-2.3,8.82,2.6,-5.23,-1.06,-0.11
2563,8427.0,-1.5,8.02,4.69,-5.39,-1.28,-0.27
2564,8431.0,-1.41,7.53,4.44,-5.3,-1.58,-0.51
2565,8434.0,-1.57,6.84,3.61,-5.61,-1.6,-0.83
2566,8437.0,-1.85,6.45,3.75,-5.96,-1.51,-1.1
2567,8440.0,-2.29,6.38,3.97,-6.31,-1.4,-1.35
2568,8444.0,-2.66,6.37,4.28,-6.68,-1.28,-1.56
2569,8447.0,-2.84,6.51,4.65,-7.17,-1.14,-1.78
2570,8450.0,-2.74,6.66,4.81,-7.54,-1.04,-1.9
2571,8454.0,-2.51,6.71,4.96,-7.94,-0.93,-1.98
2572,8457.0,-2.31,6.61,5.07,-8.34,-0.79,-2.04
2573,8460.0,-2.2,6.33,5.24,-8.73,-0.58,-2.08
2574,8463.0,-2.24,6.03,5.21,-8.73,-0.41,-2.1
2575,8467.0,-2.33,5.66,5.18,-8.73,-0.22,-2.09
2576,8470.0,-2.33,5.17,5.15,-8.73,0.03,-2.05
2577,8473.0,-2.29,4.81,5.07,-8.73,0.22,-2.0
2578,8476.0,-2.13,4.38,4.85,-8.73,0.41,-1.94
2579,8480.0,-2.02,4.01,4.74,-8.73,0.61,-1.87
2580,8483.0,-1.99,3.51,4.81,-8.73,0.8,-1.8
2581,8486.0,-2.02,2.9,4.82,-8.73,1.02,-1.7
2582,8489.0,-2.04,2.52,4.74,-8.73,1.16,-1.64
2583,8493.0,-2.09,2.17,4.72,-8.73,1.29,-1.58
2584,8496.0,-2.24,1.84,4.72,-8.73,1.4,-1.53
2585,8499.0,-2.36,1.56,4.77,-8.73,1.53,-1.45
2586,8502.0,-2.41,1.42,4.87,-8.73,1.6,-1.37
2587,8506.0,-2.46,1.36,5.11,-8.73,1.62,-1.28
2588,8509.0,-2.54,1.25,5.3,-8.73,1.6,-1.17
2589,8512.0,-2.73,1.0,5.39,-8.73,1.55,-1.03
2590,8515.0,-2.88,0.73,5.41,-8.73,1.49,-0.94
2591,8519.0,-3.08,0.36,5.57,-8.73,1.4,-0.93
2592,8522.0,-3.2,-0.17,6.28,-8.73,1.26,-0.99
2593,8525.0,-3.3,-0.67,6.59,-8.73,0.92,-1.16
2594,8528.0,-3.36,-0.94,6.75,-8.73,0.72,-1.31
2595,8532.0,-3.38,-1.24,6.56,-8.73,0.41,-1.49
2596,8535.0,-3.61,-1.52,5.31,-8.73,0.31,-1.68
2597,8538.0,-3.51,-2.29,6.05,-8.73,0.24,-2.02
2598,8541.0,-3.45,-2.64,6.19,-8.73,0.13,-2.33
2599,8545.0,-3.47,-3.13,6.28,-8.73,0.05,-2.63
2600,8548.0,-3.51,-3.62,6.31,-8.73,0.01,-2.92
2601,8551.0,-3.6,-4.14,6.39,-8.73,-0.06,-3.28
2602,8554.0,-3.71,-4.43,6.54,-8.73,-0.12,-3.52
2603,8558.0,-3.94,-4.84,6.6,-8.73,-0.12,-3.71
2604,8561.0,-4.2,-5.33,6.75,-8.73,-0.09,-3.89
2605,8574.0,-4.71,-6.72,6.11,-8.73,0.69,-3.81
2606,8578.0,-4.59,-7.22,6.29,-8.73,0.82,-3.68
2607,8581.0,-4.62,-7.67,6.19,-8.73,0.91,-3.53
2608,8584.0,-4.6,-7.97,6.12,-8.73,0.93,-3.41
2609,8587.0,-4.65,-8.0,5.73,-8.73,0.93,-3.26
2610,8591.0,-4.69,-8.07,5.32,-8.73,0.89,-3.08
2611,8594.0,-4.53,-8.16,4.44,-8.73,0.79,-2.87
2612,8597.0,-4.44,-8.26,3.85,-8.73,0.73,-2.71
2613,8601.0,-4.24,-8.47,3.36,-8.73,0.64,-2.58
2614,8604.0,-4.07,-8.6,2.85,-8.73,0.55,-2.47
2615,8607.0,-3.9,-8.67,2.15,-8.73,0.44,-2.35
2616,8610.0,-3.83,-8.5,1.68,-8.43,0.41,-2.27
2617,8614.0,-3.71,-8.45,1.41,-7.93,0.37,-2.18
2618,8617.0,-3.59,-8.05,1.03,-7.42,0.36,-2.09
2619,8620.0,-3.35,-7.71,0.84,-6.73,0.35,-1.97
2620,8623.0,-3.07,-7.65,0.83,-6.22,0.33,-1.91
2621,8627.0,-2.84,-7.52,0.75,-5.75,0.3,-1.85
2622,8630.0,-2.61,-7.43,0.7,-5.35,0.28,-1.8
2623,8633.0,-2.33,-7.38,0.65,-4.92,0.26,-1.74
2624,8636.0,-2.16,-7.36,0.58,-4.69,0.26,-1.69
2625,8640.0,-2.0,-7.47,0.47,-4.55,0.29,-1.64
2626,8643.0,-1.91,-7.57,0.41,-4.51,0.35,-1.6
2627,8646.0,-1.84,-7.72,0.37,-4.56,0.49,-1.54
2628,8650.0,-1.8,-7.88,0.4,-4.65,0.6,-1.51
2629,8653.0,-1.71,-8.03,0.39,-4.75,0.73,-1.47
2630,8656.0,-1.71,-8.39,0.36,-4.87,0.88,-1.44
2631,8659.0,-1.75,-8.7,0.36,-4.92,0.99,-1.43
2632,8663.0,-1.82,-9.03,0.4,-4.94,1.08,-1.43
2633,8666.0,-1.89,-9.31,0.44,-4.93,1.16,-1.44
2634,8669.0,-1.96,-9.63,0.44,-4.86,1.25,-1.46
2635,8672.0,-2.15,-9.98,0.39,-4.78,1.31,-1.48
2636,8676.0,-2.41,-10.37,0.33,-4.68,1.37,-1.51
2637,8679.0,-2.62,-10.73,0.21,-4.6,1.43,-1.53
2638,8682.0,-3.28,-11.06,0.5,-4.48,1.49,-1.56
2639,8685.0,-4.69,-10.97,0.7,-4.18,1.39,-1.5
2640,8689.0,-3.96,-11.46,-0.63,-4.08,1.41,-1.37
2641,8692.0,-3.27,-11.68,-0.24,-4.11,1.45,-1.27
2642,8695.0,-2.8,-12.48,-0.08,-4.38,1.43,-1.29
2643,8699.0,-1.92,-12.38,0.2,-4.93,1.42,-1.58
2644,8702.0,-0.96,-12.45,-0.1,-5.67,1.41,-2.01
2645,8705.0,-0.01,-12.21,-0.49,-6.49,1.48,-2.5
2646,8708.0,0.93,-11.6,-0.91,-7.43,1.5,-3.18
2647,8712.0,0.87,-12.09,-1.46,-8.01,1.55,-3.74
2648,8715.0,0.31,-12.39,-1.59,-8.65,1.75,-4.3
2649,8718.0,0.38,-11.43,-2.2,-8.73,2.02,-4.99
2650,8721.0,0.26,-10.93,-2.79,-8.73,2.28,-5.4
2651,8725.0,0.36,-10.69,-3.1,-8.73,2.49,-5.68
2652,8728.0,0.14,-10.64,-3.35,-8.73,2.65,-5.81
2653,8731.0,0.29,-9.93,-3.67,-8.73,2.75,-5.75
2654,8734.0,0.23,-9.53,-3.82,-8.72,2.65,-5.56
2655,8738.0,0.02,-9.38,-4.19,-8.47,2.55,-5.35
2656,8741.0,0.18,-8.97,-4.4,-8.2,2.4,-5.12
2657,8744.0,0.5,-8.51,-4.67,-7.75,2.13,-4.79
2658,8748.0,0.65,-8.23,-4.69,-7.38,1.87,-4.54
2659,8751.0,0.73,-8.04,-4.89,-6.96,1.56,-4.25
2660,8754.0,0.66,-7.91,-4.96,-6.61,1.35,-3.94
2661,8757.0,0.91,-7.48,-5.13,-6.14,1.05,-3.53
2662,8771.0,1.56,-6.69,-6.55,-5.02,0.34,-2.56
2663,8774.0,1.72,-6.59,-6.62,-4.82,0.2,-2.37
2664,8777.0,2.07,-6.53,-6.33,-4.66,-0.02,-2.13
2665,8781.0,2.4,-6.41,-6.12,-4.66,-0.19,-1.97
2666,8784.0,2.72,-6.32,-6.08,-4.77,-0.35,-1.83
2667,8787.0,2.93,-6.31,-6.17,-4.94,-0.49,-1.72
2668,8790.0,3.04,-6.28,-6.36,-5.28,-0.61,-1.62
2669,8794.0,3.05,-6.17,-6.49,-5.56,-0.66,-1.56
2670,8797.0,3.08,-5.99,-6.6,-5.83,-0.69,-1.51
2671,8800.0,3.04,-5.75,-6.76,-6.11,-0.73,-1.45
2672,8804.0,2.92,-5.54,-6.9,-6.24,-0.75,-1.4
2673,8807.0,2.79,-5.31,-7.08,-6.26,-0.77,-1.35
2674,8810.0,2.64,-5.11,-7.29,-6.17,-0.78,-1.3
2675,8813.0,2.45,-4.9,-7.62,-5.92,-0.78,-1.22
2676,8817.0,2.34,-4.75,-7.89,-5.66,-0.78,-1.16
2677,8820.0,2.27,-4.62,-8.18,-5.36,-0.77,-1.08
2678,8823.0,2.16,-4.51,-8.5,-5.04,-0.76,-0.99
2679,8826.0,2.07,-4.41,-8.74,-4.62,-0.76,-0.87
2680,8830.0,2.07,-4.42,-8.68,-4.34,-0.79,-0.77
2681,8833.0,2.21,-4.4,-8.53,-4.14,-0.86,-0.66
2682,8836.0,2.39,-4.3,-8.48,-3.96,-1.01,-0.53
2683,8840.0,2.49,-4.16,-8.5,-3.91,-1.16,-0.42
2684,8843.0,2.7,-4.19,-8.45,-3.99,-1.31,-0.32
2685,8846.0,2.92,-4.24,-8.46,-4.22,-1.46,-0.24
2686,8849.0,2.9,-4.07,-9.13,-4.68,-1.6,-0.17
2687,8853.0,2.56,-3.81,-10.14,-4.99,-1.62,-0.17
2688,8856.0,2.21,-3.54,-11.16,-5.18,-1.55,-0.19
2689,8859.0,2.01,-3.35,-11.71,-5.26,-1.39,-0.22
2690,8863.0,2.06,-3.22,-11.72,-5.22,-1.18,-0.28
2691,8866.0,2.17,-3.12,-11.41,-5.1,-1.04,-0.32
2692,8869.0,2.28,-3.04,-11.02,-4.94,-0.93,-0.36
2693,8872.0,2.31,-2.98,-10.76,-4.66,-0.8,-0.43
2694,8876.0,2.32,-2.96,-10.74,-4.44,-0.69,-0.5
2695,8879.0,2.29,-2.93,-10.79,-4.23,-0.58,-0.56
2696,8882.0,2.21,-2.86,-10.79,-4.05,-0.47,-0.61
2697,8886.0,2.17,-2.78,-10.74,-3.82,-0.35,-0.62
2698,8889.0,2.14,-2.76,-10.65,-3.65,-0.3,-0.61
2699,8892.0,2.16,-2.77,-10.51,-3.45,-0.29,-0.59
2700,8895.0,2.14,-2.69,-10.33,-3.12,-0.35,-0.54
2701,8899.0,2.15,-2.62,-10.23,-2.83,-0.45,-0.51
2702,8912.0,2.2,-2.76,-11.1,-1.57,-0.82,-0.46
2703,8915.0,2.18,-2.86,-11.55,-1.33,-0.84,-0.46
2704,8919.0,2.12,-3.0,-11.85,-1.18,-0.85,-0.47
2705,8922.0,2.09,-3.1,-12.12,-1.07,-0.86,-0.48
2706,8925.0,2.05,-3.19,-12.28,-0.97,-0.86,-0.5
2707,8929.0,2.1,-3.24,-12.3,-0.85,-0.88,-0.53
2708,8932.0,2.17,-3.01,-12.18,-0.76,-0.9,-0.56
2709,8935.0,2.41,-2.83,-11.75,-0.69,-0.94,-0.55
2710,8938.0,2.49,-2.94,-11.67,-0.7,-0.98,-0.53
2711,8942.0,2.3,-3.09,-11.92,-0.74,-1.04,-0.51
2712,8945.0,2.12,-3.16,-12.19,-0.79,-1.07,-0.51
2713,8948.0,2.01,-3.31,-12.33,-0.85,-1.06,-0.51
2714,8951.0,1.92,-3.46,-12.29,-0.91,-1.08,-0.55
2715,8955.0,1.82,-3.43,-12.22,-0.93,-1.12,-0.6
2716,8958.0,1.73,-3.4,-12.07,-0.93,-1.15,-0.63
2717,8961.0,1.71,-3.29,-11.94,-0.92,-1.18,-0.67
2718,8965.0,1.83,-3.12,-11.86,-0.92,-1.21,-0.69
2719,8968.0,1.93,-3.08,-11.83,-0.92,-1.22,-0.69
2720,8971.0,2.01,-3.07,-11.84,-0.94,-1.22,-0.7
2721,8974.0,2.06,-3.04,-11.82,-0.96,-1.21,-0.71
2722,8978.0,2.05,-3.0,-11.74,-0.97,-1.23,-0.73
2723,8981.0,1.98,-2.92,-11.82,-0.95,-1.26,-0.75
2724,8984.0,1.82,-2.85,-11.89,-0.9,-1.3,-0.78
2725,8988.0,1.63,-2.75,-11.94,-0.81,-1.36,-0.81
2726,8991.0,1.48,-2.71,-12.02,-0.74,-1.42,-0.82
2727,8994.0,1.38,-2.66,-12.08,-0.67,-1.47,-0.82
2728,8997.0,1.3,-2.66,-12.09,-0.59,-1.54,-0.81
2729,9001.0,1.2,-2.63,-12.14,-0.45,-1.64,-0.8
2730,9004.0,1.12,-2.6,-12.19,-0.32,-1.72,-0.78
2731,9007.0,1.07,-2.66,-12.23,-0.16,-1.81,-0.75
2732,9010.0,0.99,-2.77,-12.31,0.04,-1.9,-0.74
2733,9014.0,0.8,-2.74,-12.27,0.35,-2.0,-0.69
2734,9027.0,-0.06,-3.83,-12.73,1.7,-2.62,-0.58
2735,9030.0,-0.23,-4.11,-12.7,2.07,-2.73,-0.58
2736,9034.0,-0.42,-4.44,-12.75,2.63,-2.83,-0.55
2737,9037.0,-0.56,-4.73,-12.64,3.11,-2.91,-0.54
2738,9040.0,-0.73,-5.0,-12.62,3.65,-3.01,-0.54
2739,9044.0,-0.84,-5.43,-12.5,4.48,-3.13,-0.55
2740,9047.0,-0.9,-5.67,-12.38,5.16,-3.26,-0.56
2741,9050.0,-1.19,-7.28,-13.46,5.86,-3.38,-0.54
2742,9053.0,-0.05,-10.43,-17.96,5.6,-3.44,-0.47
